%time,field.header.seq,field.header.stamp,field.header.frame_id,field.orientation.x,field.orientation.y,field.orientation.z,field.orientation.w,field.orientation_covariance0,field.orientation_covariance1,field.orientation_covariance2,field.orientation_covariance3,field.orientation_covariance4,field.orientation_covariance5,field.orientation_covariance6,field.orientation_covariance7,field.orientation_covariance8,field.angular_velocity.x,field.angular_velocity.y,field.angular_velocity.z,field.angular_velocity_covariance0,field.angular_velocity_covariance1,field.angular_velocity_covariance2,field.angular_velocity_covariance3,field.angular_velocity_covariance4,field.angular_velocity_covariance5,field.angular_velocity_covariance6,field.angular_velocity_covariance7,field.angular_velocity_covariance8,field.linear_acceleration.x,field.linear_acceleration.y,field.linear_acceleration.z,field.linear_acceleration_covariance0,field.linear_acceleration_covariance1,field.linear_acceleration_covariance2,field.linear_acceleration_covariance3,field.linear_acceleration_covariance4,field.linear_acceleration_covariance5,field.linear_acceleration_covariance6,field.linear_acceleration_covariance7,field.linear_acceleration_covariance8
1575033823462017210,0,3131853105000,gps_ref,0.0,0.0,0.0,0.0,0.0,0.0,0.0,0.0,0.0,0.0,0.0,0.0,0.0,-0.0457763671875,0.656127929688,-0.0152587890625,0.0,0.0,0.0,0.0,0.0,0.0,0.0,0.0,0.0,0.19140625,0.421093761921,9.51289081573,0.0,0.0,0.0,0.0,0.0,0.0,0.0,0.0,0.0
1575033823629190596,1,3131953044000,gps_ref,0.0,0.0,0.0,0.0,0.0,0.0,0.0,0.0,0.0,0.0,0.0,0.0,0.0,0.106811523438,0.106811523438,0.0152587890625,0.0,0.0,0.0,0.0,0.0,0.0,0.0,0.0,0.0,0.21054688096,0.516796886921,9.41718769073,0.0,0.0,0.0,0.0,0.0,0.0,0.0,0.0,0.0
1575033823801525348,2,3132053532000,gps_ref,0.0,0.0,0.0,0.0,0.0,0.0,0.0,0.0,0.0,0.0,0.0,0.0,0.0,0.228881835938,0.18310546875,0.06103515625,0.0,0.0,0.0,0.0,0.0,0.0,0.0,0.0,0.0,0.13398437947,0.468945324421,9.35976600647,0.0,0.0,0.0,0.0,0.0,0.0,0.0,0.0,0.0
1575033823999302528,3,3132173029000,gps_ref,0.0,0.0,0.0,0.0,0.0,0.0,0.0,0.0,0.0,0.0,0.0,0.0,0.0,0.579833984375,0.54931640625,-0.030517578125,0.0,0.0,0.0,0.0,0.0,0.0,0.0,0.0,0.0,0.172265633941,0.516796886921,9.26406288147,0.0,0.0,0.0,0.0,0.0,0.0,0.0,0.0,0.0
1575033824184742343,4,3132272139000,gps_ref,0.0,0.0,0.0,0.0,0.0,0.0,0.0,0.0,0.0,0.0,0.0,0.0,0.0,-0.1220703125,-0.18310546875,0.0152587890625,0.0,0.0,0.0,0.0,0.0,0.0,0.0,0.0,0.0,0.19140625,0.440234392881,9.55117225647,0.0,0.0,0.0,0.0,0.0,0.0,0.0,0.0,0.0
1575033824357488065,5,3132372445000,gps_ref,0.0,0.0,0.0,0.0,0.0,0.0,0.0,0.0,0.0,0.0,0.0,0.0,0.0,0.656127929688,0.396728515625,0.06103515625,0.0,0.0,0.0,0.0,0.0,0.0,0.0,0.0,0.0,0.095703125,0.507226571441,9.31191444397,0.0,0.0,0.0,0.0,0.0,0.0,0.0,0.0,0.0
1575033824537433185,6,3132472028000,gps_ref,0.0,0.0,0.0,0.0,0.0,0.0,0.0,0.0,0.0,0.0,0.0,0.0,0.0,-0.152587890625,0.18310546875,0.06103515625,0.0,0.0,0.0,0.0,0.0,0.0,0.0,0.0,0.0,0.24882812798,0.421093761921,9.64687538147,0.0,0.0,0.0,0.0,0.0,0.0,0.0,0.0,0.0
1575033824717698587,7,3132582028000,gps_ref,0.0,0.0,0.0,0.0,0.0,0.0,0.0,0.0,0.0,0.0,0.0,0.0,0.0,-0.152587890625,0.0762939453125,-0.0152587890625,0.0,0.0,0.0,0.0,0.0,0.0,0.0,0.0,0.0,0.30625000596,0.3828125,9.5894536972,0.0,0.0,0.0,0.0,0.0,0.0,0.0,0.0,0.0
1575033824905081904,8,3132682028000,gps_ref,0.0,0.0,0.0,0.0,0.0,0.0,0.0,0.0,0.0,0.0,0.0,0.0,0.0,0.91552734375,0.442504882812,-0.0457763671875,0.0,0.0,0.0,0.0,0.0,0.0,0.0,0.0,0.0,0.095703125,0.535937488079,9.1875,0.0,0.0,0.0,0.0,0.0,0.0,0.0,0.0,0.0
1575033825078365054,9,3132792087000,gps_ref,0.0,0.0,0.0,0.0,0.0,0.0,0.0,0.0,0.0,0.0,0.0,0.0,0.0,0.518798828125,0.473022460938,-0.0152587890625,0.0,0.0,0.0,0.0,0.0,0.0,0.0,0.0,0.0,0.19140625,0.40195313096,9.3980474472,0.0,0.0,0.0,0.0,0.0,0.0,0.0,0.0,0.0
1575033825268838360,10,3132892179000,gps_ref,0.0,0.0,0.0,0.0,0.0,0.0,0.0,0.0,0.0,0.0,0.0,0.0,0.0,0.0,0.335693359375,-0.0152587890625,0.0,0.0,0.0,0.0,0.0,0.0,0.0,0.0,0.0,0.13398437202,0.478515625,9.55117225647,0.0,0.0,0.0,0.0,0.0,0.0,0.0,0.0,0.0
1575033825443025904,11,3132992110000,gps_ref,0.0,0.0,0.0,0.0,0.0,0.0,0.0,0.0,0.0,0.0,0.0,0.0,0.0,0.213623046875,0.335693359375,0.0762939453125,0.0,0.0,0.0,0.0,0.0,0.0,0.0,0.0,0.0,0.24882812798,0.459375023842,9.41718769073,0.0,0.0,0.0,0.0,0.0,0.0,0.0,0.0,0.0
1575033825626793523,12,3133092223000,gps_ref,0.0,0.0,0.0,0.0,0.0,0.0,0.0,0.0,0.0,0.0,0.0,0.0,0.0,0.244140625,0.289916992188,0.1220703125,0.0,0.0,0.0,0.0,0.0,0.0,0.0,0.0,0.0,0.19140625,0.535937488079,9.41718769073,0.0,0.0,0.0,0.0,0.0,0.0,0.0,0.0,0.0
1575033825815180015,13,3133202028000,gps_ref,0.0,0.0,0.0,0.0,0.0,0.0,0.0,0.0,0.0,0.0,0.0,0.0,0.0,-0.350952148438,0.656127929688,0.06103515625,0.0,0.0,0.0,0.0,0.0,0.0,0.0,0.0,0.0,0.19140625,0.535937488079,9.60859394073,0.0,0.0,0.0,0.0,0.0,0.0,0.0,0.0,0.0
1575033826012462788,14,3133302028000,gps_ref,0.0,0.0,0.0,0.0,0.0,0.0,0.0,0.0,0.0,0.0,0.0,0.0,0.0,-0.06103515625,-0.167846679688,0.06103515625,0.0,0.0,0.0,0.0,0.0,0.0,0.0,0.0,0.0,0.229687511921,0.24882812798,9.62773418427,0.0,0.0,0.0,0.0,0.0,0.0,0.0,0.0,0.0
1575033826202058343,15,3133412028000,gps_ref,0.0,0.0,0.0,0.0,0.0,0.0,0.0,0.0,0.0,0.0,0.0,0.0,0.0,0.30517578125,-0.534057617188,0.0152587890625,0.0,0.0,0.0,0.0,0.0,0.0,0.0,0.0,0.0,0.26796874404,0.478515625,9.55117225647,0.0,0.0,0.0,0.0,0.0,0.0,0.0,0.0,0.0
1575033826385653442,16,3133511157000,gps_ref,0.0,0.0,0.0,0.0,0.0,0.0,0.0,0.0,0.0,0.0,0.0,0.0,0.0,0.442504882812,0.335693359375,-0.0152587890625,0.0,0.0,0.0,0.0,0.0,0.0,0.0,0.0,0.0,0.200976572931,0.5263671875,9.35976552963,0.0,0.0,0.0,0.0,0.0,0.0,0.0,0.0,0.0
1575033826572365653,17,3133621084000,gps_ref,0.0,0.0,0.0,0.0,0.0,0.0,0.0,0.0,0.0,0.0,0.0,0.0,0.0,0.335693359375,0.6103515625,0.0152587890625,0.0,0.0,0.0,0.0,0.0,0.0,0.0,0.0,0.0,0.229687511921,0.49765625596,9.3980474472,0.0,0.0,0.0,0.0,0.0,0.0,0.0,0.0,0.0
1575033826752451118,18,3133721486000,gps_ref,0.0,0.0,0.0,0.0,0.0,0.0,0.0,0.0,0.0,0.0,0.0,0.0,0.0,-0.198364257812,-0.152587890625,0.0152587890625,0.0,0.0,0.0,0.0,0.0,0.0,0.0,0.0,0.0,0.16269531846,0.4306640625,9.50332021713,0.0,0.0,0.0,0.0,0.0,0.0,0.0,0.0,0.0
1575033826949018779,19,3133831075000,gps_ref,0.0,0.0,0.0,0.0,0.0,0.0,0.0,0.0,0.0,0.0,0.0,0.0,0.0,-0.0762939453125,-0.18310546875,0.137329101562,0.0,0.0,0.0,0.0,0.0,0.0,0.0,0.0,0.0,0.21054688096,0.325390636921,9.55117225647,0.0,0.0,0.0,0.0,0.0,0.0,0.0,0.0,0.0
1575033827137123953,20,3133921085000,gps_ref,0.0,0.0,0.0,0.0,0.0,0.0,0.0,0.0,0.0,0.0,0.0,0.0,0.0,0.54931640625,0.625610351562,0.030517578125,0.0,0.0,0.0,0.0,0.0,0.0,0.0,0.0,0.0,0.21054688096,0.555078148842,9.2066411972,0.0,0.0,0.0,0.0,0.0,0.0,0.0,0.0,0.0
1575033827327551962,21,3134031085000,gps_ref,0.0,0.0,0.0,0.0,0.0,0.0,0.0,0.0,0.0,0.0,0.0,0.0,0.0,0.579833984375,0.67138671875,-0.0762939453125,0.0,0.0,0.0,0.0,0.0,0.0,0.0,0.0,0.0,0.095703125,0.516796886921,9.26406288147,0.0,0.0,0.0,0.0,0.0,0.0,0.0,0.0,0.0
1575033827517325846,22,3134142266000,gps_ref,0.0,0.0,0.0,0.0,0.0,0.0,0.0,0.0,0.0,0.0,0.0,0.0,0.0,0.381469726562,0.579833984375,0.106811523438,0.0,0.0,0.0,0.0,0.0,0.0,0.0,0.0,0.0,0.22968750447,0.459375008941,9.37890672684,0.0,0.0,0.0,0.0,0.0,0.0,0.0,0.0,0.0
1575033827707368263,23,3134241248000,gps_ref,0.0,0.0,0.0,0.0,0.0,0.0,0.0,0.0,0.0,0.0,0.0,0.0,0.0,0.320434570312,0.152587890625,0.0,0.0,0.0,0.0,0.0,0.0,0.0,0.0,0.0,0.0,0.15312500298,0.478515625,9.3980474472,0.0,0.0,0.0,0.0,0.0,0.0,0.0,0.0,0.0
1575033827891240012,24,3134341142000,gps_ref,0.0,0.0,0.0,0.0,0.0,0.0,0.0,0.0,0.0,0.0,0.0,0.0,0.0,0.411987304688,0.030517578125,-0.0762939453125,0.0,0.0,0.0,0.0,0.0,0.0,0.0,0.0,0.0,0.21054688096,0.440234392881,9.41718769073,0.0,0.0,0.0,0.0,0.0,0.0,0.0,0.0,0.0
1575033828105293791,25,3134451114000,gps_ref,0.0,0.0,0.0,0.0,0.0,0.0,0.0,0.0,0.0,0.0,0.0,0.0,0.0,0.54931640625,0.091552734375,0.0152587890625,0.0,0.0,0.0,0.0,0.0,0.0,0.0,0.0,0.0,0.229687511921,0.459375023842,9.41718769073,0.0,0.0,0.0,0.0,0.0,0.0,0.0,0.0,0.0
1575033828273665469,26,3134551086000,gps_ref,0.0,0.0,0.0,0.0,0.0,0.0,0.0,0.0,0.0,0.0,0.0,0.0,0.0,0.42724609375,0.442504882812,0.198364257812,0.0,0.0,0.0,0.0,0.0,0.0,0.0,0.0,0.0,0.0765625014901,0.325390636921,9.24492168427,0.0,0.0,0.0,0.0,0.0,0.0,0.0,0.0,0.0
1575033828446273309,27,3134661086000,gps_ref,0.0,0.0,0.0,0.0,0.0,0.0,0.0,0.0,0.0,0.0,0.0,0.0,0.0,0.518798828125,0.0,0.152587890625,0.0,0.0,0.0,0.0,0.0,0.0,0.0,0.0,0.0,0.229687511921,0.40195313096,9.43632793427,0.0,0.0,0.0,0.0,0.0,0.0,0.0,0.0,0.0
1575033828630315462,28,3134760087000,gps_ref,0.0,0.0,0.0,0.0,0.0,0.0,0.0,0.0,0.0,0.0,0.0,0.0,0.0,0.411987304688,0.3662109375,0.030517578125,0.0,0.0,0.0,0.0,0.0,0.0,0.0,0.0,0.0,0.229687511921,0.57421875,9.37890625,0.0,0.0,0.0,0.0,0.0,0.0,0.0,0.0,0.0
1575033828788898069,29,3134870136000,gps_ref,0.0,0.0,0.0,0.0,0.0,0.0,0.0,0.0,0.0,0.0,0.0,0.0,0.0,0.350952148438,0.0762939453125,0.106811523438,0.0,0.0,0.0,0.0,0.0,0.0,0.0,0.0,0.0,0.287109375,0.3828125,9.3980474472,0.0,0.0,0.0,0.0,0.0,0.0,0.0,0.0,0.0
1575033828947500991,30,3134970181000,gps_ref,0.0,0.0,0.0,0.0,0.0,0.0,0.0,0.0,0.0,0.0,0.0,0.0,0.0,0.564575195312,0.0762939453125,-0.091552734375,0.0,0.0,0.0,0.0,0.0,0.0,0.0,0.0,0.0,0.21054688096,0.440234392881,9.41718769073,0.0,0.0,0.0,0.0,0.0,0.0,0.0,0.0,0.0
1575033829096391427,31,3135070147000,gps_ref,0.0,0.0,0.0,0.0,0.0,0.0,0.0,0.0,0.0,0.0,0.0,0.0,0.0,0.640869140625,0.3662109375,0.06103515625,0.0,0.0,0.0,0.0,0.0,0.0,0.0,0.0,0.0,0.0957031287253,0.4306640625,9.22578144073,0.0,0.0,0.0,0.0,0.0,0.0,0.0,0.0,0.0
1575033829292501129,32,3135190265000,gps_ref,0.0,0.0,0.0,0.0,0.0,0.0,0.0,0.0,0.0,0.0,0.0,0.0,0.0,0.06103515625,-0.259399414062,0.0762939453125,0.0,0.0,0.0,0.0,0.0,0.0,0.0,0.0,0.0,0.24882812798,0.555078148842,9.474609375,0.0,0.0,0.0,0.0,0.0,0.0,0.0,0.0,0.0
1575033829456728226,33,3135270161000,gps_ref,0.0,0.0,0.0,0.0,0.0,0.0,0.0,0.0,0.0,0.0,0.0,0.0,0.0,-0.381469726562,0.701904296875,-0.06103515625,0.0,0.0,0.0,0.0,0.0,0.0,0.0,0.0,0.0,0.21054688096,0.459375023842,9.55117225647,0.0,0.0,0.0,0.0,0.0,0.0,0.0,0.0,0.0
1575033829621720595,34,3135380031000,gps_ref,0.0,0.0,0.0,0.0,0.0,0.0,0.0,0.0,0.0,0.0,0.0,0.0,0.0,-0.0762939453125,0.534057617188,0.0457763671875,0.0,0.0,0.0,0.0,0.0,0.0,0.0,0.0,0.0,0.287109375,0.40195313096,9.37890625,0.0,0.0,0.0,0.0,0.0,0.0,0.0,0.0,0.0
1575033829775594916,35,3135480030000,gps_ref,0.0,0.0,0.0,0.0,0.0,0.0,0.0,0.0,0.0,0.0,0.0,0.0,0.0,0.0762939453125,0.030517578125,0.091552734375,0.0,0.0,0.0,0.0,0.0,0.0,0.0,0.0,0.0,0.15312500298,0.459375023842,9.4937505722,0.0,0.0,0.0,0.0,0.0,0.0,0.0,0.0,0.0
1575033829938086384,36,3135580044000,gps_ref,0.0,0.0,0.0,0.0,0.0,0.0,0.0,0.0,0.0,0.0,0.0,0.0,0.0,0.0,-0.106811523438,0.106811523438,0.0,0.0,0.0,0.0,0.0,0.0,0.0,0.0,0.0,0.15312500298,0.612500011921,9.55117225647,0.0,0.0,0.0,0.0,0.0,0.0,0.0,0.0,0.0
1575033830104592454,37,3135680041000,gps_ref,0.0,0.0,0.0,0.0,0.0,0.0,0.0,0.0,0.0,0.0,0.0,0.0,0.0,0.106811523438,-0.0457763671875,0.0152587890625,0.0,0.0,0.0,0.0,0.0,0.0,0.0,0.0,0.0,0.24882812798,0.421093761921,9.45546913147,0.0,0.0,0.0,0.0,0.0,0.0,0.0,0.0,0.0
1575033830256981114,38,3135790259000,gps_ref,0.0,0.0,0.0,0.0,0.0,0.0,0.0,0.0,0.0,0.0,0.0,0.0,0.0,0.442504882812,-0.152587890625,0.0457763671875,0.0,0.0,0.0,0.0,0.0,0.0,0.0,0.0,0.0,0.19140625,0.3828125,9.55117225647,0.0,0.0,0.0,0.0,0.0,0.0,0.0,0.0,0.0
1575033830430186384,39,3135890256000,gps_ref,0.0,0.0,0.0,0.0,0.0,0.0,0.0,0.0,0.0,0.0,0.0,0.0,0.0,0.6103515625,0.457763671875,-0.0762939453125,0.0,0.0,0.0,0.0,0.0,0.0,0.0,0.0,0.0,0.19140625,0.3828125,9.26406288147,0.0,0.0,0.0,0.0,0.0,0.0,0.0,0.0,0.0
1575033830602385070,40,3136000710000,gps_ref,0.0,0.0,0.0,0.0,0.0,0.0,0.0,0.0,0.0,0.0,0.0,0.0,0.0,0.579833984375,0.640869140625,0.0762939453125,0.0,0.0,0.0,0.0,0.0,0.0,0.0,0.0,0.0,0.26796874404,0.57421875,9.14921855927,0.0,0.0,0.0,0.0,0.0,0.0,0.0,0.0,0.0
1575033830766561583,41,3136109028000,gps_ref,0.0,0.0,0.0,0.0,0.0,0.0,0.0,0.0,0.0,0.0,0.0,0.0,0.0,0.518798828125,0.6103515625,-0.0152587890625,0.0,0.0,0.0,0.0,0.0,0.0,0.0,0.0,0.0,0.26796874404,0.49765625596,9.37890625,0.0,0.0,0.0,0.0,0.0,0.0,0.0,0.0,0.0
1575033830931734685,42,3136209028000,gps_ref,0.0,0.0,0.0,0.0,0.0,0.0,0.0,0.0,0.0,0.0,0.0,0.0,0.0,-0.0457763671875,0.411987304688,0.0762939453125,0.0,0.0,0.0,0.0,0.0,0.0,0.0,0.0,0.0,0.15312500298,0.39238281548,9.47460985184,0.0,0.0,0.0,0.0,0.0,0.0,0.0,0.0,0.0
1575033831110552409,43,3136299028000,gps_ref,0.0,0.0,0.0,0.0,0.0,0.0,0.0,0.0,0.0,0.0,0.0,0.0,0.0,0.640869140625,0.213623046875,-0.0762939453125,0.0,0.0,0.0,0.0,0.0,0.0,0.0,0.0,0.0,0.30625000596,0.325390636921,9.34062480927,0.0,0.0,0.0,0.0,0.0,0.0,0.0,0.0,0.0
1575033831277616393,44,3136419028000,gps_ref,0.0,0.0,0.0,0.0,0.0,0.0,0.0,0.0,0.0,0.0,0.0,0.0,0.0,-0.0762939453125,-0.152587890625,0.0762939453125,0.0,0.0,0.0,0.0,0.0,0.0,0.0,0.0,0.0,0.25839844346,0.516796886921,9.5320315361,0.0,0.0,0.0,0.0,0.0,0.0,0.0,0.0,0.0
1575033831464400283,45,3136509085000,gps_ref,0.0,0.0,0.0,0.0,0.0,0.0,0.0,0.0,0.0,0.0,0.0,0.0,0.0,0.259399414062,0.381469726562,0.0152587890625,0.0,0.0,0.0,0.0,0.0,0.0,0.0,0.0,0.0,0.19140625,0.36367186904,9.474609375,0.0,0.0,0.0,0.0,0.0,0.0,0.0,0.0,0.0
1575033831648427090,46,3136619085000,gps_ref,0.0,0.0,0.0,0.0,0.0,0.0,0.0,0.0,0.0,0.0,0.0,0.0,0.0,0.289916992188,0.42724609375,0.030517578125,0.0,0.0,0.0,0.0,0.0,0.0,0.0,0.0,0.0,0.11484375596,0.36367186904,9.35976600647,0.0,0.0,0.0,0.0,0.0,0.0,0.0,0.0,0.0
1575033831845916580,47,3136719160000,gps_ref,0.0,0.0,0.0,0.0,0.0,0.0,0.0,0.0,0.0,0.0,0.0,0.0,0.0,0.0,-0.0457763671875,0.030517578125,0.0,0.0,0.0,0.0,0.0,0.0,0.0,0.0,0.0,0.19140625,0.421093761921,9.64687538147,0.0,0.0,0.0,0.0,0.0,0.0,0.0,0.0,0.0
1575033832010598517,48,3136829028000,gps_ref,0.0,0.0,0.0,0.0,0.0,0.0,0.0,0.0,0.0,0.0,0.0,0.0,0.0,-0.289916992188,0.0152587890625,0.137329101562,0.0,0.0,0.0,0.0,0.0,0.0,0.0,0.0,0.0,0.24882812798,0.440234392881,9.6851568222,0.0,0.0,0.0,0.0,0.0,0.0,0.0,0.0,0.0
1575033832201756138,49,3136939038000,gps_ref,0.0,0.0,0.0,0.0,0.0,0.0,0.0,0.0,0.0,0.0,0.0,0.0,0.0,0.0762939453125,-0.289916992188,0.030517578125,0.0,0.0,0.0,0.0,0.0,0.0,0.0,0.0,0.0,0.229687511921,0.40195313096,9.74257850647,0.0,0.0,0.0,0.0,0.0,0.0,0.0,0.0,0.0
1575033832384572225,50,3137039042000,gps_ref,0.0,0.0,0.0,0.0,0.0,0.0,0.0,0.0,0.0,0.0,0.0,0.0,0.0,0.335693359375,0.213623046875,-0.030517578125,0.0,0.0,0.0,0.0,0.0,0.0,0.0,0.0,0.0,0.15312500298,0.40195313096,9.34062480927,0.0,0.0,0.0,0.0,0.0,0.0,0.0,0.0,0.0
1575033832575513783,51,3137139037000,gps_ref,0.0,0.0,0.0,0.0,0.0,0.0,0.0,0.0,0.0,0.0,0.0,0.0,0.0,0.335693359375,0.48828125,-0.0152587890625,0.0,0.0,0.0,0.0,0.0,0.0,0.0,0.0,0.0,0.15312500298,0.478515625,9.22578144073,0.0,0.0,0.0,0.0,0.0,0.0,0.0,0.0,0.0
1575033832757270157,52,3137238113000,gps_ref,0.0,0.0,0.0,0.0,0.0,0.0,0.0,0.0,0.0,0.0,0.0,0.0,0.0,-0.0762939453125,-0.167846679688,0.1220703125,0.0,0.0,0.0,0.0,0.0,0.0,0.0,0.0,0.0,0.229687511921,0.40195313096,9.45546913147,0.0,0.0,0.0,0.0,0.0,0.0,0.0,0.0,0.0
1575033832942889856,53,3137348029000,gps_ref,0.0,0.0,0.0,0.0,0.0,0.0,0.0,0.0,0.0,0.0,0.0,0.0,0.0,-0.106811523438,0.0,0.06103515625,0.0,0.0,0.0,0.0,0.0,0.0,0.0,0.0,0.0,0.095703125,0.49765625596,9.60859394073,0.0,0.0,0.0,0.0,0.0,0.0,0.0,0.0,0.0
1575033833119657966,54,3137428028000,gps_ref,0.0,0.0,0.0,0.0,0.0,0.0,0.0,0.0,0.0,0.0,0.0,0.0,0.0,-0.0762939453125,-0.06103515625,0.106811523438,0.0,0.0,0.0,0.0,0.0,0.0,0.0,0.0,0.0,0.0765625014901,0.478515625,9.60859394073,0.0,0.0,0.0,0.0,0.0,0.0,0.0,0.0,0.0
1575033833321654020,55,3137548428000,gps_ref,0.0,0.0,0.0,0.0,0.0,0.0,0.0,0.0,0.0,0.0,0.0,0.0,0.0,0.442504882812,0.579833984375,0.137329101562,0.0,0.0,0.0,0.0,0.0,0.0,0.0,0.0,0.0,0.172265633941,0.44023437798,9.31191444397,0.0,0.0,0.0,0.0,0.0,0.0,0.0,0.0,0.0
1575033833512501881,56,3137648029000,gps_ref,0.0,0.0,0.0,0.0,0.0,0.0,0.0,0.0,0.0,0.0,0.0,0.0,0.0,0.0,0.198364257812,0.030517578125,0.0,0.0,0.0,0.0,0.0,0.0,0.0,0.0,0.0,0.15312500298,0.36367186904,9.4937505722,0.0,0.0,0.0,0.0,0.0,0.0,0.0,0.0,0.0
1575033833705845616,57,3137748028000,gps_ref,0.0,0.0,0.0,0.0,0.0,0.0,0.0,0.0,0.0,0.0,0.0,0.0,0.0,0.213623046875,-0.0457763671875,0.0762939453125,0.0,0.0,0.0,0.0,0.0,0.0,0.0,0.0,0.0,0.229687511921,0.421093761921,9.34062480927,0.0,0.0,0.0,0.0,0.0,0.0,0.0,0.0,0.0
1575033833886552065,58,3137848028000,gps_ref,0.0,0.0,0.0,0.0,0.0,0.0,0.0,0.0,0.0,0.0,0.0,0.0,0.0,0.534057617188,0.457763671875,0.030517578125,0.0,0.0,0.0,0.0,0.0,0.0,0.0,0.0,0.0,0.30625000596,0.440234392881,9.3023443222,0.0,0.0,0.0,0.0,0.0,0.0,0.0,0.0,0.0
1575033834089301386,59,3137958085000,gps_ref,0.0,0.0,0.0,0.0,0.0,0.0,0.0,0.0,0.0,0.0,0.0,0.0,0.0,0.457763671875,0.534057617188,0.030517578125,0.0,0.0,0.0,0.0,0.0,0.0,0.0,0.0,0.0,0.19140625,0.478515625,9.32148456573,0.0,0.0,0.0,0.0,0.0,0.0,0.0,0.0,0.0
1575033834266834537,60,3138047582000,gps_ref,0.0,0.0,0.0,0.0,0.0,0.0,0.0,0.0,0.0,0.0,0.0,0.0,0.0,0.350952148438,-0.167846679688,0.0152587890625,0.0,0.0,0.0,0.0,0.0,0.0,0.0,0.0,0.0,0.24882812798,0.421093761921,9.46503925323,0.0,0.0,0.0,0.0,0.0,0.0,0.0,0.0,0.0
1575033834468400329,61,3138168143000,gps_ref,0.0,0.0,0.0,0.0,0.0,0.0,0.0,0.0,0.0,0.0,0.0,0.0,0.0,0.0152587890625,0.106811523438,0.137329101562,0.0,0.0,0.0,0.0,0.0,0.0,0.0,0.0,0.0,0.21054688096,0.459375023842,9.51289081573,0.0,0.0,0.0,0.0,0.0,0.0,0.0,0.0,0.0
1575033834641184865,62,3138258581000,gps_ref,0.0,0.0,0.0,0.0,0.0,0.0,0.0,0.0,0.0,0.0,0.0,0.0,0.0,0.473022460938,0.259399414062,-0.06103515625,0.0,0.0,0.0,0.0,0.0,0.0,0.0,0.0,0.0,0.22011718899,0.48808594048,9.35976552963,0.0,0.0,0.0,0.0,0.0,0.0,0.0,0.0,0.0
1575033834836601643,63,3138378085000,gps_ref,0.0,0.0,0.0,0.0,0.0,0.0,0.0,0.0,0.0,0.0,0.0,0.0,0.0,0.0457763671875,-0.167846679688,0.0457763671875,0.0,0.0,0.0,0.0,0.0,0.0,0.0,0.0,0.0,0.229687511921,0.421093761921,9.4937505722,0.0,0.0,0.0,0.0,0.0,0.0,0.0,0.0,0.0
1575033835017411467,64,3138478143000,gps_ref,0.0,0.0,0.0,0.0,0.0,0.0,0.0,0.0,0.0,0.0,0.0,0.0,0.0,0.534057617188,0.213623046875,-0.0457763671875,0.0,0.0,0.0,0.0,0.0,0.0,0.0,0.0,0.0,0.200976572931,0.468945324421,9.3310546875,0.0,0.0,0.0,0.0,0.0,0.0,0.0,0.0,0.0
1575033835201846363,65,3138577638000,gps_ref,0.0,0.0,0.0,0.0,0.0,0.0,0.0,0.0,0.0,0.0,0.0,0.0,0.0,0.0762939453125,0.289916992188,0.137329101562,0.0,0.0,0.0,0.0,0.0,0.0,0.0,0.0,0.0,0.22011718899,0.478515639901,9.4363284111,0.0,0.0,0.0,0.0,0.0,0.0,0.0,0.0,0.0
1575033835385900640,66,3138677049000,gps_ref,0.0,0.0,0.0,0.0,0.0,0.0,0.0,0.0,0.0,0.0,0.0,0.0,0.0,-0.091552734375,-0.198364257812,0.1220703125,0.0,0.0,0.0,0.0,0.0,0.0,0.0,0.0,0.0,0.287109375,0.421093761921,9.62773418427,0.0,0.0,0.0,0.0,0.0,0.0,0.0,0.0,0.0
1575033835568255171,67,3138787278000,gps_ref,0.0,0.0,0.0,0.0,0.0,0.0,0.0,0.0,0.0,0.0,0.0,0.0,0.0,0.0762939453125,-0.091552734375,0.030517578125,0.0,0.0,0.0,0.0,0.0,0.0,0.0,0.0,0.0,0.24882812798,0.459375023842,9.5703125,0.0,0.0,0.0,0.0,0.0,0.0,0.0,0.0,0.0
1575033835753253897,68,3138887292000,gps_ref,0.0,0.0,0.0,0.0,0.0,0.0,0.0,0.0,0.0,0.0,0.0,0.0,0.0,0.473022460938,0.106811523438,-0.0457763671875,0.0,0.0,0.0,0.0,0.0,0.0,0.0,0.0,0.0,0.26796874404,0.459375023842,9.22578144073,0.0,0.0,0.0,0.0,0.0,0.0,0.0,0.0,0.0
1575033835936183959,69,3138997030000,gps_ref,0.0,0.0,0.0,0.0,0.0,0.0,0.0,0.0,0.0,0.0,0.0,0.0,0.0,0.228881835938,0.1220703125,-0.091552734375,0.0,0.0,0.0,0.0,0.0,0.0,0.0,0.0,0.0,0.19140625,0.459375023842,9.45546913147,0.0,0.0,0.0,0.0,0.0,0.0,0.0,0.0,0.0
1575033836108500914,70,3139097028000,gps_ref,0.0,0.0,0.0,0.0,0.0,0.0,0.0,0.0,0.0,0.0,0.0,0.0,0.0,0.1220703125,0.289916992188,0.0457763671875,0.0,0.0,0.0,0.0,0.0,0.0,0.0,0.0,0.0,0.13398437202,0.421093761921,9.43632793427,0.0,0.0,0.0,0.0,0.0,0.0,0.0,0.0,0.0
1575033836312390727,71,3139207179000,gps_ref,0.0,0.0,0.0,0.0,0.0,0.0,0.0,0.0,0.0,0.0,0.0,0.0,0.0,0.137329101562,0.274658203125,0.0,0.0,0.0,0.0,0.0,0.0,0.0,0.0,0.0,0.0,0.21054688096,0.40195313096,9.51289081573,0.0,0.0,0.0,0.0,0.0,0.0,0.0,0.0,0.0
1575033836497994640,72,3139297028000,gps_ref,0.0,0.0,0.0,0.0,0.0,0.0,0.0,0.0,0.0,0.0,0.0,0.0,0.0,0.442504882812,0.335693359375,0.06103515625,0.0,0.0,0.0,0.0,0.0,0.0,0.0,0.0,0.0,0.287109375,0.459375023842,9.37890625,0.0,0.0,0.0,0.0,0.0,0.0,0.0,0.0,0.0
1575033836679907738,73,3139417077000,gps_ref,0.0,0.0,0.0,0.0,0.0,0.0,0.0,0.0,0.0,0.0,0.0,0.0,0.0,-0.167846679688,-0.0762939453125,-0.0762939453125,0.0,0.0,0.0,0.0,0.0,0.0,0.0,0.0,0.0,0.344531267881,0.49765625596,9.41718769073,0.0,0.0,0.0,0.0,0.0,0.0,0.0,0.0,0.0
1575033836864112145,74,3139517202000,gps_ref,0.0,0.0,0.0,0.0,0.0,0.0,0.0,0.0,0.0,0.0,0.0,0.0,0.0,0.274658203125,0.396728515625,0.1220703125,0.0,0.0,0.0,0.0,0.0,0.0,0.0,0.0,0.0,0.15312500298,0.344531267881,9.35976600647,0.0,0.0,0.0,0.0,0.0,0.0,0.0,0.0,0.0
1575033837067024975,75,3139627178000,gps_ref,0.0,0.0,0.0,0.0,0.0,0.0,0.0,0.0,0.0,0.0,0.0,0.0,0.0,0.503540039062,0.48828125,-0.0152587890625,0.0,0.0,0.0,0.0,0.0,0.0,0.0,0.0,0.0,0.095703125,0.49765625596,9.32148456573,0.0,0.0,0.0,0.0,0.0,0.0,0.0,0.0,0.0
1575033837246581661,76,3139736087000,gps_ref,0.0,0.0,0.0,0.0,0.0,0.0,0.0,0.0,0.0,0.0,0.0,0.0,0.0,0.3662109375,0.564575195312,-0.0762939453125,0.0,0.0,0.0,0.0,0.0,0.0,0.0,0.0,0.0,0.15312500298,0.631640613079,9.283203125,0.0,0.0,0.0,0.0,0.0,0.0,0.0,0.0,0.0
1575033837416262491,77,3139826028000,gps_ref,0.0,0.0,0.0,0.0,0.0,0.0,0.0,0.0,0.0,0.0,0.0,0.0,0.0,0.1220703125,-0.152587890625,-0.0457763671875,0.0,0.0,0.0,0.0,0.0,0.0,0.0,0.0,0.0,0.325390636921,0.574218779802,9.50332021713,0.0,0.0,0.0,0.0,0.0,0.0,0.0,0.0,0.0
1575033837594889612,78,3139926485000,gps_ref,0.0,0.0,0.0,0.0,0.0,0.0,0.0,0.0,0.0,0.0,0.0,0.0,0.0,0.579833984375,0.54931640625,0.0457763671875,0.0,0.0,0.0,0.0,0.0,0.0,0.0,0.0,0.0,0.22968750447,0.44980469346,9.2927737236,0.0,0.0,0.0,0.0,0.0,0.0,0.0,0.0,0.0
1575033837777579553,79,3140036089000,gps_ref,0.0,0.0,0.0,0.0,0.0,0.0,0.0,0.0,0.0,0.0,0.0,0.0,0.0,0.381469726562,0.656127929688,0.06103515625,0.0,0.0,0.0,0.0,0.0,0.0,0.0,0.0,0.0,0.143554694951,0.478515639901,9.3406252861,0.0,0.0,0.0,0.0,0.0,0.0,0.0,0.0,0.0
1575033837944332467,80,3140126028000,gps_ref,0.0,0.0,0.0,0.0,0.0,0.0,0.0,0.0,0.0,0.0,0.0,0.0,0.0,0.228881835938,-0.289916992188,0.0457763671875,0.0,0.0,0.0,0.0,0.0,0.0,0.0,0.0,0.0,0.30625000596,0.421093761921,9.5703125,0.0,0.0,0.0,0.0,0.0,0.0,0.0,0.0,0.0
1575033838118675870,81,3140236101000,gps_ref,0.0,0.0,0.0,0.0,0.0,0.0,0.0,0.0,0.0,0.0,0.0,0.0,0.0,0.259399414062,-0.167846679688,0.030517578125,0.0,0.0,0.0,0.0,0.0,0.0,0.0,0.0,0.0,0.325390636921,0.516796886921,9.474609375,0.0,0.0,0.0,0.0,0.0,0.0,0.0,0.0,0.0
1575033838279656918,82,3140336029000,gps_ref,0.0,0.0,0.0,0.0,0.0,0.0,0.0,0.0,0.0,0.0,0.0,0.0,0.0,0.48828125,0.564575195312,0.0152587890625,0.0,0.0,0.0,0.0,0.0,0.0,0.0,0.0,0.0,0.13398437202,0.440234392881,9.3023443222,0.0,0.0,0.0,0.0,0.0,0.0,0.0,0.0,0.0
1575033838450840338,83,3140446028000,gps_ref,0.0,0.0,0.0,0.0,0.0,0.0,0.0,0.0,0.0,0.0,0.0,0.0,0.0,0.289916992188,0.640869140625,0.0457763671875,0.0,0.0,0.0,0.0,0.0,0.0,0.0,0.0,0.0,0.24882812798,0.3828125,9.3980474472,0.0,0.0,0.0,0.0,0.0,0.0,0.0,0.0,0.0
1575033838630196891,84,3140546028000,gps_ref,0.0,0.0,0.0,0.0,0.0,0.0,0.0,0.0,0.0,0.0,0.0,0.0,0.0,-0.0762939453125,0.030517578125,0.0457763671875,0.0,0.0,0.0,0.0,0.0,0.0,0.0,0.0,0.0,0.11484375596,0.421093761921,9.51289081573,0.0,0.0,0.0,0.0,0.0,0.0,0.0,0.0,0.0
1575033838818559202,85,3140646028000,gps_ref,0.0,0.0,0.0,0.0,0.0,0.0,0.0,0.0,0.0,0.0,0.0,0.0,0.0,0.3662109375,0.0762939453125,0.0457763671875,0.0,0.0,0.0,0.0,0.0,0.0,0.0,0.0,0.0,0.26796874404,0.421093761921,9.55117225647,0.0,0.0,0.0,0.0,0.0,0.0,0.0,0.0,0.0
1575033838993121519,86,3140746085000,gps_ref,0.0,0.0,0.0,0.0,0.0,0.0,0.0,0.0,0.0,0.0,0.0,0.0,0.0,0.3662109375,0.54931640625,-0.030517578125,0.0,0.0,0.0,0.0,0.0,0.0,0.0,0.0,0.0,0.143554694951,0.46894530952,9.35019540787,0.0,0.0,0.0,0.0,0.0,0.0,0.0,0.0,0.0
1575033839176257971,87,3140856029000,gps_ref,0.0,0.0,0.0,0.0,0.0,0.0,0.0,0.0,0.0,0.0,0.0,0.0,0.0,0.06103515625,0.48828125,-0.1220703125,0.0,0.0,0.0,0.0,0.0,0.0,0.0,0.0,0.0,0.21054688096,0.440234392881,9.32148456573,0.0,0.0,0.0,0.0,0.0,0.0,0.0,0.0,0.0
1575033839347611208,88,3140945121000,gps_ref,0.0,0.0,0.0,0.0,0.0,0.0,0.0,0.0,0.0,0.0,0.0,0.0,0.0,0.320434570312,0.091552734375,0.0,0.0,0.0,0.0,0.0,0.0,0.0,0.0,0.0,0.0,0.24882812798,0.555078148842,9.32148456573,0.0,0.0,0.0,0.0,0.0,0.0,0.0,0.0,0.0
1575033839519963676,89,3141045218000,gps_ref,0.0,0.0,0.0,0.0,0.0,0.0,0.0,0.0,0.0,0.0,0.0,0.0,0.0,0.503540039062,0.579833984375,0.0,0.0,0.0,0.0,0.0,0.0,0.0,0.0,0.0,0.0,0.172265633941,0.535937488079,9.43632793427,0.0,0.0,0.0,0.0,0.0,0.0,0.0,0.0,0.0
1575033839709408595,90,3141155097000,gps_ref,0.0,0.0,0.0,0.0,0.0,0.0,0.0,0.0,0.0,0.0,0.0,0.0,0.0,0.213623046875,0.518798828125,0.06103515625,0.0,0.0,0.0,0.0,0.0,0.0,0.0,0.0,0.0,0.15312500298,0.49765625596,9.55117225647,0.0,0.0,0.0,0.0,0.0,0.0,0.0,0.0,0.0
1575033839902489356,91,3141255097000,gps_ref,0.0,0.0,0.0,0.0,0.0,0.0,0.0,0.0,0.0,0.0,0.0,0.0,0.0,-0.0762939453125,-0.167846679688,0.030517578125,0.0,0.0,0.0,0.0,0.0,0.0,0.0,0.0,0.0,0.24882812798,0.40195313096,9.5894536972,0.0,0.0,0.0,0.0,0.0,0.0,0.0,0.0,0.0
1575033840088170965,92,3141365305000,gps_ref,0.0,0.0,0.0,0.0,0.0,0.0,0.0,0.0,0.0,0.0,0.0,0.0,0.0,-0.0457763671875,-0.091552734375,0.0457763671875,0.0,0.0,0.0,0.0,0.0,0.0,0.0,0.0,0.0,0.26796874404,0.440234392881,9.4937505722,0.0,0.0,0.0,0.0,0.0,0.0,0.0,0.0,0.0
1575033840271323561,93,3141465322000,gps_ref,0.0,0.0,0.0,0.0,0.0,0.0,0.0,0.0,0.0,0.0,0.0,0.0,0.0,0.54931640625,0.869750976562,-0.06103515625,0.0,0.0,0.0,0.0,0.0,0.0,0.0,0.0,0.0,0.19140625,0.287109375,9.091796875,0.0,0.0,0.0,0.0,0.0,0.0,0.0,0.0,0.0
1575033840446079241,94,3141565371000,gps_ref,0.0,0.0,0.0,0.0,0.0,0.0,0.0,0.0,0.0,0.0,0.0,0.0,0.0,-0.30517578125,0.106811523438,0.152587890625,0.0,0.0,0.0,0.0,0.0,0.0,0.0,0.0,0.0,0.13398437202,0.421093761921,9.53203105927,0.0,0.0,0.0,0.0,0.0,0.0,0.0,0.0,0.0
1575033840626668985,95,3141665135000,gps_ref,0.0,0.0,0.0,0.0,0.0,0.0,0.0,0.0,0.0,0.0,0.0,0.0,0.0,0.198364257812,-0.289916992188,-0.0152587890625,0.0,0.0,0.0,0.0,0.0,0.0,0.0,0.0,0.0,0.277539074421,0.44980469346,9.50332021713,0.0,0.0,0.0,0.0,0.0,0.0,0.0,0.0,0.0
1575033840825105219,96,3141755097000,gps_ref,0.0,0.0,0.0,0.0,0.0,0.0,0.0,0.0,0.0,0.0,0.0,0.0,0.0,0.350952148438,0.686645507812,-0.0152587890625,0.0,0.0,0.0,0.0,0.0,0.0,0.0,0.0,0.0,0.172265633941,0.516796886921,9.43632793427,0.0,0.0,0.0,0.0,0.0,0.0,0.0,0.0,0.0
1575033841015680520,97,3141865479000,gps_ref,0.0,0.0,0.0,0.0,0.0,0.0,0.0,0.0,0.0,0.0,0.0,0.0,0.0,-0.030517578125,0.30517578125,0.0,0.0,0.0,0.0,0.0,0.0,0.0,0.0,0.0,0.0,0.15312500298,0.344531267881,9.60859394073,0.0,0.0,0.0,0.0,0.0,0.0,0.0,0.0,0.0
1575033841215056351,98,3141965231000,gps_ref,0.0,0.0,0.0,0.0,0.0,0.0,0.0,0.0,0.0,0.0,0.0,0.0,0.0,0.42724609375,-0.1220703125,0.0,0.0,0.0,0.0,0.0,0.0,0.0,0.0,0.0,0.0,0.3828125,0.421093761921,9.26406288147,0.0,0.0,0.0,0.0,0.0,0.0,0.0,0.0,0.0
1575033841409104511,99,3142075134000,gps_ref,0.0,0.0,0.0,0.0,0.0,0.0,0.0,0.0,0.0,0.0,0.0,0.0,0.0,0.595092773438,0.030517578125,0.167846679688,0.0,0.0,0.0,0.0,0.0,0.0,0.0,0.0,0.0,0.30625000596,0.40195313096,9.26406288147,0.0,0.0,0.0,0.0,0.0,0.0,0.0,0.0,0.0
1575033841600032979,100,3142175186000,gps_ref,0.0,0.0,0.0,0.0,0.0,0.0,0.0,0.0,0.0,0.0,0.0,0.0,0.0,0.717163085938,0.457763671875,-0.0152587890625,0.0,0.0,0.0,0.0,0.0,0.0,0.0,0.0,0.0,0.13398437202,0.631640613079,9.2066411972,0.0,0.0,0.0,0.0,0.0,0.0,0.0,0.0,0.0
1575033841786068964,101,3142284091000,gps_ref,0.0,0.0,0.0,0.0,0.0,0.0,0.0,0.0,0.0,0.0,0.0,0.0,0.0,0.198364257812,0.473022460938,0.0152587890625,0.0,0.0,0.0,0.0,0.0,0.0,0.0,0.0,0.0,0.11484375596,0.459375023842,9.34062480927,0.0,0.0,0.0,0.0,0.0,0.0,0.0,0.0,0.0
1575033841973916528,102,3142384099000,gps_ref,0.0,0.0,0.0,0.0,0.0,0.0,0.0,0.0,0.0,0.0,0.0,0.0,0.0,0.091552734375,-0.06103515625,0.0762939453125,0.0,0.0,0.0,0.0,0.0,0.0,0.0,0.0,0.0,0.24882812798,0.516796886921,9.60859394073,0.0,0.0,0.0,0.0,0.0,0.0,0.0,0.0,0.0
1575033842167996120,103,3142494032000,gps_ref,0.0,0.0,0.0,0.0,0.0,0.0,0.0,0.0,0.0,0.0,0.0,0.0,0.0,0.198364257812,-0.152587890625,0.0152587890625,0.0,0.0,0.0,0.0,0.0,0.0,0.0,0.0,0.0,0.30625000596,0.478515625,9.43632793427,0.0,0.0,0.0,0.0,0.0,0.0,0.0,0.0,0.0
1575033842349131871,104,3142594033000,gps_ref,0.0,0.0,0.0,0.0,0.0,0.0,0.0,0.0,0.0,0.0,0.0,0.0,0.0,0.457763671875,0.503540039062,0.106811523438,0.0,0.0,0.0,0.0,0.0,0.0,0.0,0.0,0.0,0.13398437202,0.440234392881,9.45546913147,0.0,0.0,0.0,0.0,0.0,0.0,0.0,0.0,0.0
1575033842520618267,105,3142693886000,gps_ref,0.0,0.0,0.0,0.0,0.0,0.0,0.0,0.0,0.0,0.0,0.0,0.0,0.0,0.0762939453125,0.259399414062,-0.0762939453125,0.0,0.0,0.0,0.0,0.0,0.0,0.0,0.0,0.0,0.21054688096,0.488085955381,9.56074237823,0.0,0.0,0.0,0.0,0.0,0.0,0.0,0.0,0.0
1575033842715722291,106,3142794045000,gps_ref,0.0,0.0,0.0,0.0,0.0,0.0,0.0,0.0,0.0,0.0,0.0,0.0,0.0,0.137329101562,-0.228881835938,-0.18310546875,0.0,0.0,0.0,0.0,0.0,0.0,0.0,0.0,0.0,0.229687511921,0.421093761921,9.35976600647,0.0,0.0,0.0,0.0,0.0,0.0,0.0,0.0,0.0
1575033842876434090,107,3142884238000,gps_ref,0.0,0.0,0.0,0.0,0.0,0.0,0.0,0.0,0.0,0.0,0.0,0.0,0.0,-0.0457763671875,0.198364257812,0.106811523438,0.0,0.0,0.0,0.0,0.0,0.0,0.0,0.0,0.0,0.24882812798,0.36367186904,9.5703125,0.0,0.0,0.0,0.0,0.0,0.0,0.0,0.0,0.0
1575033843070770296,108,3143004091000,gps_ref,0.0,0.0,0.0,0.0,0.0,0.0,0.0,0.0,0.0,0.0,0.0,0.0,0.0,0.274658203125,0.473022460938,-0.0762939453125,0.0,0.0,0.0,0.0,0.0,0.0,0.0,0.0,0.0,0.095703125,0.593359410763,9.34062480927,0.0,0.0,0.0,0.0,0.0,0.0,0.0,0.0,0.0
1575033843249212046,109,3143104103000,gps_ref,0.0,0.0,0.0,0.0,0.0,0.0,0.0,0.0,0.0,0.0,0.0,0.0,0.0,-0.0762939453125,-0.152587890625,0.106811523438,0.0,0.0,0.0,0.0,0.0,0.0,0.0,0.0,0.0,0.287109375,0.440234392881,9.5894536972,0.0,0.0,0.0,0.0,0.0,0.0,0.0,0.0,0.0
1575033843431759132,110,3143204106000,gps_ref,0.0,0.0,0.0,0.0,0.0,0.0,0.0,0.0,0.0,0.0,0.0,0.0,0.0,0.717163085938,0.42724609375,0.106811523438,0.0,0.0,0.0,0.0,0.0,0.0,0.0,0.0,0.0,0.26796874404,0.555078148842,9.26406288147,0.0,0.0,0.0,0.0,0.0,0.0,0.0,0.0,0.0
1575033843605662467,111,3143304105000,gps_ref,0.0,0.0,0.0,0.0,0.0,0.0,0.0,0.0,0.0,0.0,0.0,0.0,0.0,-0.106811523438,-0.335693359375,0.0,0.0,0.0,0.0,0.0,0.0,0.0,0.0,0.0,0.0,0.19140625,0.095703125,9.62773418427,0.0,0.0,0.0,0.0,0.0,0.0,0.0,0.0,0.0
1575033843785728662,112,3143403526000,gps_ref,0.0,0.0,0.0,0.0,0.0,0.0,0.0,0.0,0.0,0.0,0.0,0.0,0.0,0.762939453125,-0.213623046875,0.091552734375,0.0,0.0,0.0,0.0,0.0,0.0,0.0,0.0,0.0,0.22011718899,0.631640642881,9.59902334213,0.0,0.0,0.0,0.0,0.0,0.0,0.0,0.0,0.0
1575033843968838655,113,3143513188000,gps_ref,0.0,0.0,0.0,0.0,0.0,0.0,0.0,0.0,0.0,0.0,0.0,0.0,0.0,0.42724609375,-0.18310546875,-0.0762939453125,0.0,0.0,0.0,0.0,0.0,0.0,0.0,0.0,0.0,0.21054688096,0.488085955381,9.27363300323,0.0,0.0,0.0,0.0,0.0,0.0,0.0,0.0,0.0
1575033844155303912,114,3143613595000,gps_ref,0.0,0.0,0.0,0.0,0.0,0.0,0.0,0.0,0.0,0.0,0.0,0.0,0.0,0.411987304688,0.274658203125,-0.06103515625,0.0,0.0,0.0,0.0,0.0,0.0,0.0,0.0,0.0,0.16269531846,0.449804708362,9.43632793427,0.0,0.0,0.0,0.0,0.0,0.0,0.0,0.0,0.0
1575033844348946518,115,3143713188000,gps_ref,0.0,0.0,0.0,0.0,0.0,0.0,0.0,0.0,0.0,0.0,0.0,0.0,0.0,0.198364257812,-0.30517578125,0.167846679688,0.0,0.0,0.0,0.0,0.0,0.0,0.0,0.0,0.0,0.344531267881,0.40195313096,9.666015625,0.0,0.0,0.0,0.0,0.0,0.0,0.0,0.0,0.0
1575033844524183963,116,3143823035000,gps_ref,0.0,0.0,0.0,0.0,0.0,0.0,0.0,0.0,0.0,0.0,0.0,0.0,0.0,0.18310546875,0.0152587890625,-0.06103515625,0.0,0.0,0.0,0.0,0.0,0.0,0.0,0.0,0.0,0.24882812798,0.344531267881,9.4937505722,0.0,0.0,0.0,0.0,0.0,0.0,0.0,0.0,0.0
1575033844730262902,117,3143923029000,gps_ref,0.0,0.0,0.0,0.0,0.0,0.0,0.0,0.0,0.0,0.0,0.0,0.0,0.0,0.534057617188,0.48828125,-0.0152587890625,0.0,0.0,0.0,0.0,0.0,0.0,0.0,0.0,0.0,0.24882812798,0.650781273842,9.13007831573,0.0,0.0,0.0,0.0,0.0,0.0,0.0,0.0,0.0
1575033844925218199,118,3144033047000,gps_ref,0.0,0.0,0.0,0.0,0.0,0.0,0.0,0.0,0.0,0.0,0.0,0.0,0.0,0.0152587890625,0.717163085938,0.198364257812,0.0,0.0,0.0,0.0,0.0,0.0,0.0,0.0,0.0,0.19140625,0.440234392881,9.3980474472,0.0,0.0,0.0,0.0,0.0,0.0,0.0,0.0,0.0
1575033845123823832,119,3144133175000,gps_ref,0.0,0.0,0.0,0.0,0.0,0.0,0.0,0.0,0.0,0.0,0.0,0.0,0.0,0.48828125,-0.564575195312,-0.0457763671875,0.0,0.0,0.0,0.0,0.0,0.0,0.0,0.0,0.0,0.344531267881,0.459375023842,9.32148456573,0.0,0.0,0.0,0.0,0.0,0.0,0.0,0.0,0.0
1575033845308567694,120,3144243100000,gps_ref,0.0,0.0,0.0,0.0,0.0,0.0,0.0,0.0,0.0,0.0,0.0,0.0,0.0,0.747680664062,-0.442504882812,0.06103515625,0.0,0.0,0.0,0.0,0.0,0.0,0.0,0.0,0.0,0.24882812798,0.689062535763,9.41718769073,0.0,0.0,0.0,0.0,0.0,0.0,0.0,0.0,0.0
1575033845502399815,121,3144343243000,gps_ref,0.0,0.0,0.0,0.0,0.0,0.0,0.0,0.0,0.0,0.0,0.0,0.0,0.0,0.961303710938,0.30517578125,-0.137329101562,0.0,0.0,0.0,0.0,0.0,0.0,0.0,0.0,0.0,0.11484375596,0.459375023842,9.283203125,0.0,0.0,0.0,0.0,0.0,0.0,0.0,0.0,0.0
1575033845696248693,122,3144453048000,gps_ref,0.0,0.0,0.0,0.0,0.0,0.0,0.0,0.0,0.0,0.0,0.0,0.0,0.0,0.0,0.350952148438,-0.0152587890625,0.0,0.0,0.0,0.0,0.0,0.0,0.0,0.0,0.0,0.24882812798,0.689062535763,9.4937505722,0.0,0.0,0.0,0.0,0.0,0.0,0.0,0.0,0.0
1575033845883844831,123,3144543100000,gps_ref,0.0,0.0,0.0,0.0,0.0,0.0,0.0,0.0,0.0,0.0,0.0,0.0,0.0,0.335693359375,0.350952148438,0.091552734375,0.0,0.0,0.0,0.0,0.0,0.0,0.0,0.0,0.0,0.15312500298,0.49765625596,9.22578144073,0.0,0.0,0.0,0.0,0.0,0.0,0.0,0.0,0.0
1575033846046160166,124,3144652078000,gps_ref,0.0,0.0,0.0,0.0,0.0,0.0,0.0,0.0,0.0,0.0,0.0,0.0,0.0,0.320434570312,0.259399414062,0.030517578125,0.0,0.0,0.0,0.0,0.0,0.0,0.0,0.0,0.0,0.172265633941,0.478515625,9.24492168427,0.0,0.0,0.0,0.0,0.0,0.0,0.0,0.0,0.0
1575033846240811927,125,3144752149000,gps_ref,0.0,0.0,0.0,0.0,0.0,0.0,0.0,0.0,0.0,0.0,0.0,0.0,0.0,0.152587890625,-0.198364257812,-0.0762939453125,0.0,0.0,0.0,0.0,0.0,0.0,0.0,0.0,0.0,0.25839843601,0.54550781846,9.5416021347,0.0,0.0,0.0,0.0,0.0,0.0,0.0,0.0,0.0
1575033846395712715,126,3144842202000,gps_ref,0.0,0.0,0.0,0.0,0.0,0.0,0.0,0.0,0.0,0.0,0.0,0.0,0.0,0.42724609375,0.473022460938,0.06103515625,0.0,0.0,0.0,0.0,0.0,0.0,0.0,0.0,0.0,0.229687511921,0.478515625,9.43632793427,0.0,0.0,0.0,0.0,0.0,0.0,0.0,0.0,0.0
1575033846575263083,127,3144952150000,gps_ref,0.0,0.0,0.0,0.0,0.0,0.0,0.0,0.0,0.0,0.0,0.0,0.0,0.0,0.0152587890625,0.228881835938,0.091552734375,0.0,0.0,0.0,0.0,0.0,0.0,0.0,0.0,0.0,0.11484375596,0.49765625596,9.53203105927,0.0,0.0,0.0,0.0,0.0,0.0,0.0,0.0,0.0
1575033846749080581,128,3145052125000,gps_ref,0.0,0.0,0.0,0.0,0.0,0.0,0.0,0.0,0.0,0.0,0.0,0.0,0.0,-0.06103515625,-0.0152587890625,0.030517578125,0.0,0.0,0.0,0.0,0.0,0.0,0.0,0.0,0.0,0.19140625,0.478515625,9.474609375,0.0,0.0,0.0,0.0,0.0,0.0,0.0,0.0,0.0
1575033846916654530,129,3145162085000,gps_ref,0.0,0.0,0.0,0.0,0.0,0.0,0.0,0.0,0.0,0.0,0.0,0.0,0.0,0.3662109375,-0.228881835938,0.0457763671875,0.0,0.0,0.0,0.0,0.0,0.0,0.0,0.0,0.0,0.478515625,0.3828125,9.3023443222,0.0,0.0,0.0,0.0,0.0,0.0,0.0,0.0,0.0
1575033847104728624,130,3145262115000,gps_ref,0.0,0.0,0.0,0.0,0.0,0.0,0.0,0.0,0.0,0.0,0.0,0.0,0.0,-0.503540039062,0.0762939453125,0.259399414062,0.0,0.0,0.0,0.0,0.0,0.0,0.0,0.0,0.0,-0.0574218779802,0.421093761921,9.6851568222,0.0,0.0,0.0,0.0,0.0,0.0,0.0,0.0,0.0
1575033847270745047,131,3145372125000,gps_ref,0.0,0.0,0.0,0.0,0.0,0.0,0.0,0.0,0.0,0.0,0.0,0.0,0.0,0.381469726562,-0.0152587890625,-0.106811523438,0.0,0.0,0.0,0.0,0.0,0.0,0.0,0.0,0.0,0.30625000596,0.478515625,9.16835975647,0.0,0.0,0.0,0.0,0.0,0.0,0.0,0.0,0.0
1575033847419992938,132,3145472129000,gps_ref,0.0,0.0,0.0,0.0,0.0,0.0,0.0,0.0,0.0,0.0,0.0,0.0,0.0,0.030517578125,0.67138671875,0.0152587890625,0.0,0.0,0.0,0.0,0.0,0.0,0.0,0.0,0.0,0.13398437202,0.459375023842,9.4937505722,0.0,0.0,0.0,0.0,0.0,0.0,0.0,0.0,0.0
1575033847585610204,133,3145572142000,gps_ref,0.0,0.0,0.0,0.0,0.0,0.0,0.0,0.0,0.0,0.0,0.0,0.0,0.0,0.228881835938,0.656127929688,0.0762939453125,0.0,0.0,0.0,0.0,0.0,0.0,0.0,0.0,0.0,0.172265633941,0.49765625596,9.3023443222,0.0,0.0,0.0,0.0,0.0,0.0,0.0,0.0,0.0
1575033847766343587,134,3145682212000,gps_ref,0.0,0.0,0.0,0.0,0.0,0.0,0.0,0.0,0.0,0.0,0.0,0.0,0.0,-0.0152587890625,-0.152587890625,-0.0457763671875,0.0,0.0,0.0,0.0,0.0,0.0,0.0,0.0,0.0,0.15312500298,0.440234392881,9.72343730927,0.0,0.0,0.0,0.0,0.0,0.0,0.0,0.0,0.0
1575033847919861018,135,3145782085000,gps_ref,0.0,0.0,0.0,0.0,0.0,0.0,0.0,0.0,0.0,0.0,0.0,0.0,0.0,-3.09753417969,0.473022460938,-0.289916992188,0.0,0.0,0.0,0.0,0.0,0.0,0.0,0.0,0.0,-0.26796874404,-1.32070314884,8.47929668427,0.0,0.0,0.0,0.0,0.0,0.0,0.0,0.0,0.0
1575033848088067350,136,3145872105000,gps_ref,0.0,0.0,0.0,0.0,0.0,0.0,0.0,0.0,0.0,0.0,0.0,0.0,0.0,0.625610351562,-0.701904296875,0.091552734375,0.0,0.0,0.0,0.0,0.0,0.0,0.0,0.0,0.0,0.880468785763,0.823046863079,10.0105466843,0.0,0.0,0.0,0.0,0.0,0.0,0.0,0.0,0.0
1575033848239880274,137,3145981028000,gps_ref,0.0,0.0,0.0,0.0,0.0,0.0,0.0,0.0,0.0,0.0,0.0,0.0,0.0,0.579833984375,-0.473022460938,-0.137329101562,0.0,0.0,0.0,0.0,0.0,0.0,0.0,0.0,0.0,0.19140625,0.40195313096,9.5894536972,0.0,0.0,0.0,0.0,0.0,0.0,0.0,0.0,0.0
1575033848406899363,138,3146081028000,gps_ref,0.0,0.0,0.0,0.0,0.0,0.0,0.0,0.0,0.0,0.0,0.0,0.0,0.0,0.564575195312,0.396728515625,0.030517578125,0.0,0.0,0.0,0.0,0.0,0.0,0.0,0.0,0.0,0.26796874404,0.49765625596,9.474609375,0.0,0.0,0.0,0.0,0.0,0.0,0.0,0.0,0.0
1575033848574308571,139,3146181078000,gps_ref,0.0,0.0,0.0,0.0,0.0,0.0,0.0,0.0,0.0,0.0,0.0,0.0,0.0,0.18310546875,0.1220703125,0.213623046875,0.0,0.0,0.0,0.0,0.0,0.0,0.0,0.0,0.0,0.30625000596,0.49765625596,9.24492168427,0.0,0.0,0.0,0.0,0.0,0.0,0.0,0.0,0.0
1575033848745608080,140,3146291161000,gps_ref,0.0,0.0,0.0,0.0,0.0,0.0,0.0,0.0,0.0,0.0,0.0,0.0,0.0,-0.0457763671875,0.259399414062,0.0152587890625,0.0,0.0,0.0,0.0,0.0,0.0,0.0,0.0,0.0,0.30625000596,0.36367186904,9.41718769073,0.0,0.0,0.0,0.0,0.0,0.0,0.0,0.0,0.0
1575033848918163373,141,3146391201000,gps_ref,0.0,0.0,0.0,0.0,0.0,0.0,0.0,0.0,0.0,0.0,0.0,0.0,0.0,0.244140625,-0.0457763671875,0.06103515625,0.0,0.0,0.0,0.0,0.0,0.0,0.0,0.0,0.0,0.21054688096,0.49765625596,9.43632793427,0.0,0.0,0.0,0.0,0.0,0.0,0.0,0.0,0.0
1575033849098983046,142,3146501079000,gps_ref,0.0,0.0,0.0,0.0,0.0,0.0,0.0,0.0,0.0,0.0,0.0,0.0,0.0,0.106811523438,-0.091552734375,0.106811523438,0.0,0.0,0.0,0.0,0.0,0.0,0.0,0.0,0.0,0.344531267881,0.440234392881,9.474609375,0.0,0.0,0.0,0.0,0.0,0.0,0.0,0.0,0.0
1575033849265636851,143,3146611029000,gps_ref,0.0,0.0,0.0,0.0,0.0,0.0,0.0,0.0,0.0,0.0,0.0,0.0,0.0,-0.289916992188,-0.030517578125,-0.0152587890625,0.0,0.0,0.0,0.0,0.0,0.0,0.0,0.0,0.0,0.36367186904,0.325390636921,9.666015625,0.0,0.0,0.0,0.0,0.0,0.0,0.0,0.0,0.0
1575033849464476440,144,3146711029000,gps_ref,0.0,0.0,0.0,0.0,0.0,0.0,0.0,0.0,0.0,0.0,0.0,0.0,0.0,0.244140625,-0.259399414062,0.06103515625,0.0,0.0,0.0,0.0,0.0,0.0,0.0,0.0,0.0,0.3828125,0.49765625596,9.41718769073,0.0,0.0,0.0,0.0,0.0,0.0,0.0,0.0,0.0
1575033849623405706,145,3146811028000,gps_ref,0.0,0.0,0.0,0.0,0.0,0.0,0.0,0.0,0.0,0.0,0.0,0.0,0.0,0.350952148438,-0.1220703125,0.198364257812,0.0,0.0,0.0,0.0,0.0,0.0,0.0,0.0,0.0,0.24882812798,0.516796886921,9.4937505722,0.0,0.0,0.0,0.0,0.0,0.0,0.0,0.0,0.0
1575033849798087183,146,3146921028000,gps_ref,0.0,0.0,0.0,0.0,0.0,0.0,0.0,0.0,0.0,0.0,0.0,0.0,0.0,0.381469726562,-0.3662109375,0.030517578125,0.0,0.0,0.0,0.0,0.0,0.0,0.0,0.0,0.0,0.0574218779802,0.49765625596,9.37890625,0.0,0.0,0.0,0.0,0.0,0.0,0.0,0.0,0.0
1575033849970553052,147,3147021028000,gps_ref,0.0,0.0,0.0,0.0,0.0,0.0,0.0,0.0,0.0,0.0,0.0,0.0,0.0,0.0762939453125,-0.518798828125,-0.213623046875,0.0,0.0,0.0,0.0,0.0,0.0,0.0,0.0,0.0,0.526367202401,0.440234392881,9.51289081573,0.0,0.0,0.0,0.0,0.0,0.0,0.0,0.0,0.0
1575033850156181495,148,3147121557000,gps_ref,0.0,0.0,0.0,0.0,0.0,0.0,0.0,0.0,0.0,0.0,0.0,0.0,0.0,0.198364257812,-1.40380859375,0.18310546875,0.0,0.0,0.0,0.0,0.0,0.0,0.0,0.0,0.0,1.1962890625,0.30625000596,9.32148456573,0.0,0.0,0.0,0.0,0.0,0.0,0.0,0.0,0.0
1575033850343380237,149,3147230429000,gps_ref,0.0,0.0,0.0,0.0,0.0,0.0,0.0,0.0,0.0,0.0,0.0,0.0,0.0,-0.259399414062,-1.57165527344,0.137329101562,0.0,0.0,0.0,0.0,0.0,0.0,0.0,0.0,0.0,1.45468747616,0.40195313096,9.21621131897,0.0,0.0,0.0,0.0,0.0,0.0,0.0,0.0,0.0
1575033850512440577,150,3147330028000,gps_ref,0.0,0.0,0.0,0.0,0.0,0.0,0.0,0.0,0.0,0.0,0.0,0.0,0.0,-0.656127929688,-0.6103515625,0.381469726562,0.0,0.0,0.0,0.0,0.0,0.0,0.0,0.0,0.0,0.861328125,0.516796886921,9.8765630722,0.0,0.0,0.0,0.0,0.0,0.0,0.0,0.0,0.0
1575033850695994888,151,3147430097000,gps_ref,0.0,0.0,0.0,0.0,0.0,0.0,0.0,0.0,0.0,0.0,0.0,0.0,0.0,-0.320434570312,1.00708007812,0.106811523438,0.0,0.0,0.0,0.0,0.0,0.0,0.0,0.0,0.0,0.784765660763,0.555078148842,9.8765630722,0.0,0.0,0.0,0.0,0.0,0.0,0.0,0.0,0.0
1575033850888579538,152,3147540386000,gps_ref,0.0,0.0,0.0,0.0,0.0,0.0,0.0,0.0,0.0,0.0,0.0,0.0,0.0,-0.503540039062,1.77001953125,-0.503540039062,0.0,0.0,0.0,0.0,0.0,0.0,0.0,0.0,0.0,0.612500011921,0.344531267881,9.283203125,0.0,0.0,0.0,0.0,0.0,0.0,0.0,0.0,0.0
1575033851069645243,153,3147640470000,gps_ref,0.0,0.0,0.0,0.0,0.0,0.0,0.0,0.0,0.0,0.0,0.0,0.0,0.0,0.3662109375,0.946044921875,-0.06103515625,0.0,0.0,0.0,0.0,0.0,0.0,0.0,0.0,0.0,0.689062535763,0.19140625,9.34062480927,0.0,0.0,0.0,0.0,0.0,0.0,0.0,0.0,0.0
1575033851263739773,154,3147750028000,gps_ref,0.0,0.0,0.0,0.0,0.0,0.0,0.0,0.0,0.0,0.0,0.0,0.0,0.0,0.274658203125,0.503540039062,0.0457763671875,0.0,0.0,0.0,0.0,0.0,0.0,0.0,0.0,0.0,0.631640613079,0.612500011921,9.14921855927,0.0,0.0,0.0,0.0,0.0,0.0,0.0,0.0,0.0
1575033851468021626,155,3147850028000,gps_ref,0.0,0.0,0.0,0.0,0.0,0.0,0.0,0.0,0.0,0.0,0.0,0.0,0.0,0.274658203125,0.1220703125,-0.717163085938,0.0,0.0,0.0,0.0,0.0,0.0,0.0,0.0,0.0,0.593359410763,0.478515625,9.53203105927,0.0,0.0,0.0,0.0,0.0,0.0,0.0,0.0,0.0
1575033851650472183,156,3147960029000,gps_ref,0.0,0.0,0.0,0.0,0.0,0.0,0.0,0.0,0.0,0.0,0.0,0.0,0.0,0.335693359375,0.564575195312,-0.640869140625,0.0,0.0,0.0,0.0,0.0,0.0,0.0,0.0,0.0,0.535937488079,0.325390636921,9.34062480927,0.0,0.0,0.0,0.0,0.0,0.0,0.0,0.0,0.0
1575033851836759468,157,3148049720000,gps_ref,0.0,0.0,0.0,0.0,0.0,0.0,0.0,0.0,0.0,0.0,0.0,0.0,0.0,-0.106811523438,0.3662109375,-0.518798828125,0.0,0.0,0.0,0.0,0.0,0.0,0.0,0.0,0.0,0.669921875,0.3349609375,9.51289081573,0.0,0.0,0.0,0.0,0.0,0.0,0.0,0.0,0.0
1575033852026602087,158,3148160028000,gps_ref,0.0,0.0,0.0,0.0,0.0,0.0,0.0,0.0,0.0,0.0,0.0,0.0,0.0,0.244140625,0.640869140625,-0.885009765625,0.0,0.0,0.0,0.0,0.0,0.0,0.0,0.0,0.0,0.669921875,0.57421875,9.283203125,0.0,0.0,0.0,0.0,0.0,0.0,0.0,0.0,0.0
1575033852221699736,159,3148250028000,gps_ref,0.0,0.0,0.0,0.0,0.0,0.0,0.0,0.0,0.0,0.0,0.0,0.0,0.0,-0.030517578125,-0.137329101562,-1.32751464844,0.0,0.0,0.0,0.0,0.0,0.0,0.0,0.0,0.0,0.689062535763,0.440234392881,9.5703125,0.0,0.0,0.0,0.0,0.0,0.0,0.0,0.0,0.0
1575033852404418017,160,3148359089000,gps_ref,0.0,0.0,0.0,0.0,0.0,0.0,0.0,0.0,0.0,0.0,0.0,0.0,0.0,0.30517578125,0.411987304688,-1.55639648438,0.0,0.0,0.0,0.0,0.0,0.0,0.0,0.0,0.0,0.593359410763,0.421093761921,9.53203105927,0.0,0.0,0.0,0.0,0.0,0.0,0.0,0.0,0.0
1575033852593194554,161,3148459085000,gps_ref,0.0,0.0,0.0,0.0,0.0,0.0,0.0,0.0,0.0,0.0,0.0,0.0,0.0,-0.167846679688,0.473022460938,-1.69372558594,0.0,0.0,0.0,0.0,0.0,0.0,0.0,0.0,0.0,0.765625,0.516796886921,9.4937505722,0.0,0.0,0.0,0.0,0.0,0.0,0.0,0.0,0.0
1575033852760233739,162,3148569244000,gps_ref,0.0,0.0,0.0,0.0,0.0,0.0,0.0,0.0,0.0,0.0,0.0,0.0,0.0,0.320434570312,0.640869140625,-2.18200683594,0.0,0.0,0.0,0.0,0.0,0.0,0.0,0.0,0.0,0.593359410763,0.3828125,9.34062480927,0.0,0.0,0.0,0.0,0.0,0.0,0.0,0.0,0.0
1575033852957185833,163,3148669154000,gps_ref,0.0,0.0,0.0,0.0,0.0,0.0,0.0,0.0,0.0,0.0,0.0,0.0,0.0,0.137329101562,0.411987304688,-2.41088867188,0.0,0.0,0.0,0.0,0.0,0.0,0.0,0.0,0.0,0.612500011921,0.26796874404,9.35976600647,0.0,0.0,0.0,0.0,0.0,0.0,0.0,0.0,0.0
1575033853159977042,164,3148769227000,gps_ref,0.0,0.0,0.0,0.0,0.0,0.0,0.0,0.0,0.0,0.0,0.0,0.0,0.0,0.152587890625,0.213623046875,-2.8076171875,0.0,0.0,0.0,0.0,0.0,0.0,0.0,0.0,0.0,0.555078148842,0.40195313096,9.34062480927,0.0,0.0,0.0,0.0,0.0,0.0,0.0,0.0,0.0
1575033853360513610,165,3148879220000,gps_ref,0.0,0.0,0.0,0.0,0.0,0.0,0.0,0.0,0.0,0.0,0.0,0.0,0.0,0.381469726562,0.411987304688,-3.173828125,0.0,0.0,0.0,0.0,0.0,0.0,0.0,0.0,0.0,0.516796886921,0.49765625596,9.3023443222,0.0,0.0,0.0,0.0,0.0,0.0,0.0,0.0,0.0
1575033853532963293,166,3148968836000,gps_ref,0.0,0.0,0.0,0.0,0.0,0.0,0.0,0.0,0.0,0.0,0.0,0.0,0.0,-0.18310546875,0.1220703125,-3.63159179688,0.0,0.0,0.0,0.0,0.0,0.0,0.0,0.0,0.0,0.59335938096,0.401953145862,9.57031297684,0.0,0.0,0.0,0.0,0.0,0.0,0.0,0.0,0.0
1575033853726258681,167,3149078659000,gps_ref,0.0,0.0,0.0,0.0,0.0,0.0,0.0,0.0,0.0,0.0,0.0,0.0,0.0,-0.274658203125,0.701904296875,-3.95202636719,0.0,0.0,0.0,0.0,0.0,0.0,0.0,0.0,0.0,0.516796886921,0.35410156846,9.3884768486,0.0,0.0,0.0,0.0,0.0,0.0,0.0,0.0,0.0
1575033853884518148,168,3149179551000,gps_ref,0.0,0.0,0.0,0.0,0.0,0.0,0.0,0.0,0.0,0.0,0.0,0.0,0.0,-0.167846679688,0.503540039062,-4.54711914062,0.0,0.0,0.0,0.0,0.0,0.0,0.0,0.0,0.0,0.54550781846,0.30625000596,9.3406252861,0.0,0.0,0.0,0.0,0.0,0.0,0.0,0.0,0.0
1575033854058342061,169,3149288554000,gps_ref,0.0,0.0,0.0,0.0,0.0,0.0,0.0,0.0,0.0,0.0,0.0,0.0,0.0,0.30517578125,0.442504882812,-5.34057617188,0.0,0.0,0.0,0.0,0.0,0.0,0.0,0.0,0.0,0.440234392881,0.3828125,9.26406288147,0.0,0.0,0.0,0.0,0.0,0.0,0.0,0.0,0.0
1575033854225700990,170,3149379031000,gps_ref,0.0,0.0,0.0,0.0,0.0,0.0,0.0,0.0,0.0,0.0,0.0,0.0,0.0,-0.289916992188,-0.167846679688,-6.08825683594,0.0,0.0,0.0,0.0,0.0,0.0,0.0,0.0,0.0,0.593359410763,0.344531267881,9.53203105927,0.0,0.0,0.0,0.0,0.0,0.0,0.0,0.0,0.0
1575033854420491777,171,3149498945000,gps_ref,0.0,0.0,0.0,0.0,0.0,0.0,0.0,0.0,0.0,0.0,0.0,0.0,0.0,0.473022460938,0.534057617188,-6.97326660156,0.0,0.0,0.0,0.0,0.0,0.0,0.0,0.0,0.0,0.555078148842,0.3828125,9.2927737236,0.0,0.0,0.0,0.0,0.0,0.0,0.0,0.0,0.0
1575033854600510953,172,3149598281000,gps_ref,0.0,0.0,0.0,0.0,0.0,0.0,0.0,0.0,0.0,0.0,0.0,0.0,0.0,-0.228881835938,0.350952148438,-7.79724121094,0.0,0.0,0.0,0.0,0.0,0.0,0.0,0.0,0.0,0.459375023842,0.421093761921,9.24492168427,0.0,0.0,0.0,0.0,0.0,0.0,0.0,0.0,0.0
1575033854774256645,173,3149698398000,gps_ref,0.0,0.0,0.0,0.0,0.0,0.0,0.0,0.0,0.0,0.0,0.0,0.0,0.0,-0.320434570312,0.457763671875,-8.60595703125,0.0,0.0,0.0,0.0,0.0,0.0,0.0,0.0,0.0,0.421093761921,0.287109375,9.43632793427,0.0,0.0,0.0,0.0,0.0,0.0,0.0,0.0,0.0
1575033854952457776,174,3149808028000,gps_ref,0.0,0.0,0.0,0.0,0.0,0.0,0.0,0.0,0.0,0.0,0.0,0.0,0.0,-0.48828125,0.106811523438,-8.80432128906,0.0,0.0,0.0,0.0,0.0,0.0,0.0,0.0,0.0,0.459375023842,0.172265633941,9.41718769073,0.0,0.0,0.0,0.0,0.0,0.0,0.0,0.0,0.0
1575033855102847774,175,3149908028000,gps_ref,0.0,0.0,0.0,0.0,0.0,0.0,0.0,0.0,0.0,0.0,0.0,0.0,0.0,-0.228881835938,0.473022460938,-9.30786132812,0.0,0.0,0.0,0.0,0.0,0.0,0.0,0.0,0.0,0.555078148842,0.229687511921,9.43632793427,0.0,0.0,0.0,0.0,0.0,0.0,0.0,0.0,0.0
1575033855265724463,176,3150008085000,gps_ref,0.0,0.0,0.0,0.0,0.0,0.0,0.0,0.0,0.0,0.0,0.0,0.0,0.0,-0.228881835938,0.411987304688,-9.82666015625,0.0,0.0,0.0,0.0,0.0,0.0,0.0,0.0,0.0,0.440234392881,0.26796874404,9.26406288147,0.0,0.0,0.0,0.0,0.0,0.0,0.0,0.0,0.0
1575033855427246737,177,3150118359000,gps_ref,0.0,0.0,0.0,0.0,0.0,0.0,0.0,0.0,0.0,0.0,0.0,0.0,0.0,-0.289916992188,-0.518798828125,-10.2996826172,0.0,0.0,0.0,0.0,0.0,0.0,0.0,0.0,0.0,0.440234392881,0.172265633941,9.4937505722,0.0,0.0,0.0,0.0,0.0,0.0,0.0,0.0,0.0
1575033855601063939,178,3150218235000,gps_ref,0.0,0.0,0.0,0.0,0.0,0.0,0.0,0.0,0.0,0.0,0.0,0.0,0.0,-0.030517578125,-0.06103515625,-10.7421875,0.0,0.0,0.0,0.0,0.0,0.0,0.0,0.0,0.0,0.459375023842,0.172265633941,9.51289081573,0.0,0.0,0.0,0.0,0.0,0.0,0.0,0.0,0.0
1575033855776462795,179,3150328028000,gps_ref,0.0,0.0,0.0,0.0,0.0,0.0,0.0,0.0,0.0,0.0,0.0,0.0,0.0,-0.244140625,0.442504882812,-11.4440917969,0.0,0.0,0.0,0.0,0.0,0.0,0.0,0.0,0.0,0.459375023842,0.095703125,9.41718769073,0.0,0.0,0.0,0.0,0.0,0.0,0.0,0.0,0.0
1575033855950484568,180,3150428085000,gps_ref,0.0,0.0,0.0,0.0,0.0,0.0,0.0,0.0,0.0,0.0,0.0,0.0,0.0,-0.30517578125,0.228881835938,-11.9476318359,0.0,0.0,0.0,0.0,0.0,0.0,0.0,0.0,0.0,0.325390636921,0.095703125,9.43632793427,0.0,0.0,0.0,0.0,0.0,0.0,0.0,0.0,0.0
1575033856147683138,181,3150538111000,gps_ref,0.0,0.0,0.0,0.0,0.0,0.0,0.0,0.0,0.0,0.0,0.0,0.0,0.0,-0.167846679688,0.67138671875,-12.1917724609,0.0,0.0,0.0,0.0,0.0,0.0,0.0,0.0,0.0,0.344531267881,0.11484375596,9.37890625,0.0,0.0,0.0,0.0,0.0,0.0,0.0,0.0,0.0
1575033856328714451,182,3150637430000,gps_ref,0.0,0.0,0.0,0.0,0.0,0.0,0.0,0.0,0.0,0.0,0.0,0.0,0.0,-0.152587890625,0.686645507812,-12.6953125,0.0,0.0,0.0,0.0,0.0,0.0,0.0,0.0,0.0,0.3828125,0.0382812507451,9.2927737236,0.0,0.0,0.0,0.0,0.0,0.0,0.0,0.0,0.0
1575033856539260454,183,3150748400000,gps_ref,0.0,0.0,0.0,0.0,0.0,0.0,0.0,0.0,0.0,0.0,0.0,0.0,0.0,0.0762939453125,0.411987304688,-13.2751464844,0.0,0.0,0.0,0.0,0.0,0.0,0.0,0.0,0.0,0.3828125,0.11484375596,9.35976600647,0.0,0.0,0.0,0.0,0.0,0.0,0.0,0.0,0.0
1575033856721963204,184,3150847987000,gps_ref,0.0,0.0,0.0,0.0,0.0,0.0,0.0,0.0,0.0,0.0,0.0,0.0,0.0,0.0152587890625,0.442504882812,-13.6108398438,0.0,0.0,0.0,0.0,0.0,0.0,0.0,0.0,0.0,0.29667969048,0.0287109389901,9.30234384537,0.0,0.0,0.0,0.0,0.0,0.0,0.0,0.0,0.0
1575033856903964789,185,3150957028000,gps_ref,0.0,0.0,0.0,0.0,0.0,0.0,0.0,0.0,0.0,0.0,0.0,0.0,0.0,0.198364257812,0.106811523438,-13.7634277344,0.0,0.0,0.0,0.0,0.0,0.0,0.0,0.0,0.0,0.363671883941,0.0574218761176,9.35019540787,0.0,0.0,0.0,0.0,0.0,0.0,0.0,0.0,0.0
1575033857100735525,186,3151057034000,gps_ref,0.0,0.0,0.0,0.0,0.0,0.0,0.0,0.0,0.0,0.0,0.0,0.0,0.0,0.457763671875,0.259399414062,-13.9312744141,0.0,0.0,0.0,0.0,0.0,0.0,0.0,0.0,0.0,0.3828125,-0.095703125,9.55117225647,0.0,0.0,0.0,0.0,0.0,0.0,0.0,0.0,0.0
1575033857289788080,187,3151157029000,gps_ref,0.0,0.0,0.0,0.0,0.0,0.0,0.0,0.0,0.0,0.0,0.0,0.0,0.0,1.19018554688,0.54931640625,-13.9770507812,0.0,0.0,0.0,0.0,0.0,0.0,0.0,0.0,0.0,0.30625000596,-0.0191406253725,9.2066411972,0.0,0.0,0.0,0.0,0.0,0.0,0.0,0.0,0.0
1575033857475424283,188,3151257057000,gps_ref,0.0,0.0,0.0,0.0,0.0,0.0,0.0,0.0,0.0,0.0,0.0,0.0,0.0,1.28173828125,0.732421875,-13.9770507812,0.0,0.0,0.0,0.0,0.0,0.0,0.0,0.0,0.0,0.26796874404,0.0191406253725,9.43632793427,0.0,0.0,0.0,0.0,0.0,0.0,0.0,0.0,0.0
1575033857654743979,189,3151367364000,gps_ref,0.0,0.0,0.0,0.0,0.0,0.0,0.0,0.0,0.0,0.0,0.0,0.0,0.0,1.48010253906,0.289916992188,-14.0838623047,0.0,0.0,0.0,0.0,0.0,0.0,0.0,0.0,0.0,0.26796874404,0.21054688096,9.1875,0.0,0.0,0.0,0.0,0.0,0.0,0.0,0.0,0.0
1575033857845137123,190,3151467531000,gps_ref,0.0,0.0,0.0,0.0,0.0,0.0,0.0,0.0,0.0,0.0,0.0,0.0,0.0,0.198364257812,0.3662109375,-14.5416259766,0.0,0.0,0.0,0.0,0.0,0.0,0.0,0.0,0.0,0.229687511921,0.21054688096,9.3980474472,0.0,0.0,0.0,0.0,0.0,0.0,0.0,0.0,0.0
1575033858028019970,191,3151577219000,gps_ref,0.0,0.0,0.0,0.0,0.0,0.0,0.0,0.0,0.0,0.0,0.0,0.0,0.0,0.595092773438,0.274658203125,-14.892578125,0.0,0.0,0.0,0.0,0.0,0.0,0.0,0.0,0.0,0.30625000596,0.19140625,9.283203125,0.0,0.0,0.0,0.0,0.0,0.0,0.0,0.0,0.0
1575033858210217900,192,3151677192000,gps_ref,0.0,0.0,0.0,0.0,0.0,0.0,0.0,0.0,0.0,0.0,0.0,0.0,0.0,-0.8544921875,0.152587890625,-14.9993896484,0.0,0.0,0.0,0.0,0.0,0.0,0.0,0.0,0.0,0.325390636921,0.172265633941,9.41718769073,0.0,0.0,0.0,0.0,0.0,0.0,0.0,0.0,0.0
1575033858392736326,193,3151777028000,gps_ref,0.0,0.0,0.0,0.0,0.0,0.0,0.0,0.0,0.0,0.0,0.0,0.0,0.0,-0.747680664062,0.42724609375,-15.4266357422,0.0,0.0,0.0,0.0,0.0,0.0,0.0,0.0,0.0,0.325390636921,0.0765625014901,9.666015625,0.0,0.0,0.0,0.0,0.0,0.0,0.0,0.0,0.0
1575033858576060099,194,3151876773000,gps_ref,0.0,0.0,0.0,0.0,0.0,0.0,0.0,0.0,0.0,0.0,0.0,0.0,0.0,-0.473022460938,0.30517578125,-15.5334472656,0.0,0.0,0.0,0.0,0.0,0.0,0.0,0.0,0.0,0.30625000596,0.0,9.32148456573,0.0,0.0,0.0,0.0,0.0,0.0,0.0,0.0,0.0
1575033858779820963,195,3151987236000,gps_ref,0.0,0.0,0.0,0.0,0.0,0.0,0.0,0.0,0.0,0.0,0.0,0.0,0.0,-0.411987304688,0.0,-15.5639648438,0.0,0.0,0.0,0.0,0.0,0.0,0.0,0.0,0.0,0.25839844346,0.0669921897352,9.41718769073,0.0,0.0,0.0,0.0,0.0,0.0,0.0,0.0,0.0
1575033858966713161,196,3152087642000,gps_ref,0.0,0.0,0.0,0.0,0.0,0.0,0.0,0.0,0.0,0.0,0.0,0.0,0.0,-0.91552734375,0.030517578125,-15.8538818359,0.0,0.0,0.0,0.0,0.0,0.0,0.0,0.0,0.0,0.29667969048,0.191406257451,9.4937505722,0.0,0.0,0.0,0.0,0.0,0.0,0.0,0.0,0.0
1575033859160738283,197,3152196541000,gps_ref,0.0,0.0,0.0,0.0,0.0,0.0,0.0,0.0,0.0,0.0,0.0,0.0,0.0,-0.732421875,0.350952148438,-16.2963867188,0.0,0.0,0.0,0.0,0.0,0.0,0.0,0.0,0.0,0.37324218452,-0.0765625014901,9.3501958847,0.0,0.0,0.0,0.0,0.0,0.0,0.0,0.0,0.0
1575033859359268562,198,3152296311000,gps_ref,0.0,0.0,0.0,0.0,0.0,0.0,0.0,0.0,0.0,0.0,0.0,0.0,0.0,-1.17492675781,0.518798828125,-16.1743164062,0.0,0.0,0.0,0.0,0.0,0.0,0.0,0.0,0.0,0.26796874404,-0.172265633941,9.41718769073,0.0,0.0,0.0,0.0,0.0,0.0,0.0,0.0,0.0
1575033859537784738,199,3152396161000,gps_ref,0.0,0.0,0.0,0.0,0.0,0.0,0.0,0.0,0.0,0.0,0.0,0.0,0.0,-0.54931640625,0.701904296875,-16.357421875,0.0,0.0,0.0,0.0,0.0,0.0,0.0,0.0,0.0,0.21054688096,-0.11484375596,9.34062480927,0.0,0.0,0.0,0.0,0.0,0.0,0.0,0.0,0.0
1575033859731791790,200,3152496040000,gps_ref,0.0,0.0,0.0,0.0,0.0,0.0,0.0,0.0,0.0,0.0,0.0,0.0,0.0,-0.091552734375,0.396728515625,-16.4947509766,0.0,0.0,0.0,0.0,0.0,0.0,0.0,0.0,0.0,0.24882812798,-0.172265633941,9.283203125,0.0,0.0,0.0,0.0,0.0,0.0,0.0,0.0,0.0
1575033859922030141,201,3152586576000,gps_ref,0.0,0.0,0.0,0.0,0.0,0.0,0.0,0.0,0.0,0.0,0.0,0.0,0.0,0.503540039062,-0.381469726562,-16.5252685547,0.0,0.0,0.0,0.0,0.0,0.0,0.0,0.0,0.0,0.277539074421,-0.0191406263039,9.5320315361,0.0,0.0,0.0,0.0,0.0,0.0,0.0,0.0,0.0
1575033860124234799,202,3152706029000,gps_ref,0.0,0.0,0.0,0.0,0.0,0.0,0.0,0.0,0.0,0.0,0.0,0.0,0.0,0.48828125,0.457763671875,-16.8151855469,0.0,0.0,0.0,0.0,0.0,0.0,0.0,0.0,0.0,0.30625000596,0.0574218779802,9.2066411972,0.0,0.0,0.0,0.0,0.0,0.0,0.0,0.0,0.0
1575033860306528408,203,3152816291000,gps_ref,0.0,0.0,0.0,0.0,0.0,0.0,0.0,0.0,0.0,0.0,0.0,0.0,0.0,0.335693359375,0.106811523438,-17.0288085938,0.0,0.0,0.0,0.0,0.0,0.0,0.0,0.0,0.0,0.287109375,-0.0382812507451,9.4937505722,0.0,0.0,0.0,0.0,0.0,0.0,0.0,0.0,0.0
1575033860488555131,204,3152916531000,gps_ref,0.0,0.0,0.0,0.0,0.0,0.0,0.0,0.0,0.0,0.0,0.0,0.0,0.0,0.030517578125,0.350952148438,-17.1203613281,0.0,0.0,0.0,0.0,0.0,0.0,0.0,0.0,0.0,0.287109375,-0.0574218779802,9.45546913147,0.0,0.0,0.0,0.0,0.0,0.0,0.0,0.0,0.0
1575033860690692772,205,3153026287000,gps_ref,0.0,0.0,0.0,0.0,0.0,0.0,0.0,0.0,0.0,0.0,0.0,0.0,0.0,-0.0152587890625,-0.0762939453125,-17.1966552734,0.0,0.0,0.0,0.0,0.0,0.0,0.0,0.0,0.0,0.229687511921,-0.0382812507451,9.32148456573,0.0,0.0,0.0,0.0,0.0,0.0,0.0,0.0,0.0
1575033860875713476,206,3153126216000,gps_ref,0.0,0.0,0.0,0.0,0.0,0.0,0.0,0.0,0.0,0.0,0.0,0.0,0.0,-0.3662109375,-0.457763671875,-17.4865722656,0.0,0.0,0.0,0.0,0.0,0.0,0.0,0.0,0.0,0.440234392881,0.0,9.3023443222,0.0,0.0,0.0,0.0,0.0,0.0,0.0,0.0,0.0
1575033861049479503,207,3153216516000,gps_ref,0.0,0.0,0.0,0.0,0.0,0.0,0.0,0.0,0.0,0.0,0.0,0.0,0.0,-0.106811523438,0.350952148438,-17.6849365234,0.0,0.0,0.0,0.0,0.0,0.0,0.0,0.0,0.0,0.36367186904,-0.21054688096,9.45546913147,0.0,0.0,0.0,0.0,0.0,0.0,0.0,0.0,0.0
1575033861255388275,208,3153335119000,gps_ref,0.0,0.0,0.0,0.0,0.0,0.0,0.0,0.0,0.0,0.0,0.0,0.0,0.0,0.228881835938,0.198364257812,-17.3950195312,0.0,0.0,0.0,0.0,0.0,0.0,0.0,0.0,0.0,0.287109375,-0.143554694951,9.35976552963,0.0,0.0,0.0,0.0,0.0,0.0,0.0,0.0,0.0
1575033861441411106,209,3153435568000,gps_ref,0.0,0.0,0.0,0.0,0.0,0.0,0.0,0.0,0.0,0.0,0.0,0.0,0.0,0.656127929688,0.06103515625,-17.3034667969,0.0,0.0,0.0,0.0,0.0,0.0,0.0,0.0,0.0,0.29667969048,-0.00957031268626,9.39804697037,0.0,0.0,0.0,0.0,0.0,0.0,0.0,0.0,0.0
1575033861625452807,210,3153535097000,gps_ref,0.0,0.0,0.0,0.0,0.0,0.0,0.0,0.0,0.0,0.0,0.0,0.0,0.0,0.335693359375,-0.579833984375,-17.2576904297,0.0,0.0,0.0,0.0,0.0,0.0,0.0,0.0,0.0,0.229687511921,-0.0574218779802,9.3023443222,0.0,0.0,0.0,0.0,0.0,0.0,0.0,0.0,0.0
1575033861821328712,211,3153635193000,gps_ref,0.0,0.0,0.0,0.0,0.0,0.0,0.0,0.0,0.0,0.0,0.0,0.0,0.0,0.335693359375,-0.534057617188,-17.1661376953,0.0,0.0,0.0,0.0,0.0,0.0,0.0,0.0,0.0,0.229687511921,-0.0574218779802,9.35976600647,0.0,0.0,0.0,0.0,0.0,0.0,0.0,0.0,0.0
1575033862018208787,212,3153756011000,gps_ref,0.0,0.0,0.0,0.0,0.0,0.0,0.0,0.0,0.0,0.0,0.0,0.0,0.0,-0.91552734375,-0.579833984375,-16.9372558594,0.0,0.0,0.0,0.0,0.0,0.0,0.0,0.0,0.0,0.27753906697,-0.0957031268626,9.67558574677,0.0,0.0,0.0,0.0,0.0,0.0,0.0,0.0,0.0
1575033862202992565,213,3153845070000,gps_ref,0.0,0.0,0.0,0.0,0.0,0.0,0.0,0.0,0.0,0.0,0.0,0.0,0.0,0.518798828125,0.335693359375,-16.6320800781,0.0,0.0,0.0,0.0,0.0,0.0,0.0,0.0,0.0,0.421093761921,-0.0382812507451,9.4937505722,0.0,0.0,0.0,0.0,0.0,0.0,0.0,0.0,0.0
1575033862421941056,214,3153965984000,gps_ref,0.0,0.0,0.0,0.0,0.0,0.0,0.0,0.0,0.0,0.0,0.0,0.0,0.0,-0.67138671875,0.274658203125,-16.0675048828,0.0,0.0,0.0,0.0,0.0,0.0,0.0,0.0,0.0,0.315820321441,-0.0669921878725,9.42675828934,0.0,0.0,0.0,0.0,0.0,0.0,0.0,0.0,0.0
1575033862605961747,215,3154065168000,gps_ref,0.0,0.0,0.0,0.0,0.0,0.0,0.0,0.0,0.0,0.0,0.0,0.0,0.0,-1.06811523438,-0.167846679688,-15.5792236328,0.0,0.0,0.0,0.0,0.0,0.0,0.0,0.0,0.0,0.3828125,0.095703125,9.81914043427,0.0,0.0,0.0,0.0,0.0,0.0,0.0,0.0,0.0
1575033862810975309,216,3154165264000,gps_ref,0.0,0.0,0.0,0.0,0.0,0.0,0.0,0.0,0.0,0.0,0.0,0.0,0.0,-0.991821289062,0.30517578125,-15.3198242188,0.0,0.0,0.0,0.0,0.0,0.0,0.0,0.0,0.0,0.325390636921,-0.0382812507451,9.64687538147,0.0,0.0,0.0,0.0,0.0,0.0,0.0,0.0,0.0
1575033862978199526,217,3154265236000,gps_ref,0.0,0.0,0.0,0.0,0.0,0.0,0.0,0.0,0.0,0.0,0.0,0.0,0.0,-0.320434570312,0.442504882812,-14.8468017578,0.0,0.0,0.0,0.0,0.0,0.0,0.0,0.0,0.0,0.287109375,-0.095703125,9.45546913147,0.0,0.0,0.0,0.0,0.0,0.0,0.0,0.0,0.0
1575033863175332578,218,3154375306000,gps_ref,0.0,0.0,0.0,0.0,0.0,0.0,0.0,0.0,0.0,0.0,0.0,0.0,0.0,0.289916992188,-0.0457763671875,-14.5263671875,0.0,0.0,0.0,0.0,0.0,0.0,0.0,0.0,0.0,0.325390636921,-0.11484375596,9.22578144073,0.0,0.0,0.0,0.0,0.0,0.0,0.0,0.0,0.0
1575033863383577787,219,3154475184000,gps_ref,0.0,0.0,0.0,0.0,0.0,0.0,0.0,0.0,0.0,0.0,0.0,0.0,0.0,0.930786132812,-0.503540039062,-13.7329101562,0.0,0.0,0.0,0.0,0.0,0.0,0.0,0.0,0.0,0.3828125,-0.11484375596,9.55117225647,0.0,0.0,0.0,0.0,0.0,0.0,0.0,0.0,0.0
1575033863559813692,220,3154585134000,gps_ref,0.0,0.0,0.0,0.0,0.0,0.0,0.0,0.0,0.0,0.0,0.0,0.0,0.0,1.77001953125,0.0,-12.4359130859,0.0,0.0,0.0,0.0,0.0,0.0,0.0,0.0,0.0,0.421093761921,-0.0574218779802,9.43632793427,0.0,0.0,0.0,0.0,0.0,0.0,0.0,0.0,0.0
1575033863736846810,221,3154674427000,gps_ref,0.0,0.0,0.0,0.0,0.0,0.0,0.0,0.0,0.0,0.0,0.0,0.0,0.0,2.24304199219,0.0762939453125,-10.9405517578,0.0,0.0,0.0,0.0,0.0,0.0,0.0,0.0,0.0,0.40195313096,0.172265633941,9.41718769073,0.0,0.0,0.0,0.0,0.0,0.0,0.0,0.0,0.0
1575033863924425688,222,3154784543000,gps_ref,0.0,0.0,0.0,0.0,0.0,0.0,0.0,0.0,0.0,0.0,0.0,0.0,0.0,1.69372558594,-0.0762939453125,-9.35363769531,0.0,0.0,0.0,0.0,0.0,0.0,0.0,0.0,0.0,0.440234392881,0.30624999851,9.50332021713,0.0,0.0,0.0,0.0,0.0,0.0,0.0,0.0,0.0
1575033864107964160,223,3154904157000,gps_ref,0.0,0.0,0.0,0.0,0.0,0.0,0.0,0.0,0.0,0.0,0.0,0.0,0.0,0.946044921875,0.717163085938,-7.4462890625,0.0,0.0,0.0,0.0,0.0,0.0,0.0,0.0,0.0,0.325390636921,0.30625000596,9.34062480927,0.0,0.0,0.0,0.0,0.0,0.0,0.0,0.0,0.0
1575033864291331127,224,3154995180000,gps_ref,0.0,0.0,0.0,0.0,0.0,0.0,0.0,0.0,0.0,0.0,0.0,0.0,0.0,0.030517578125,-0.0152587890625,-6.21032714844,0.0,0.0,0.0,0.0,0.0,0.0,0.0,0.0,0.0,0.325390636921,0.4306640625,9.5320315361,0.0,0.0,0.0,0.0,0.0,0.0,0.0,0.0,0.0
1575033864472599114,225,3155094421000,gps_ref,0.0,0.0,0.0,0.0,0.0,0.0,0.0,0.0,0.0,0.0,0.0,0.0,0.0,-0.579833984375,0.320434570312,-6.14929199219,0.0,0.0,0.0,0.0,0.0,0.0,0.0,0.0,0.0,0.287109375,0.459375023842,9.35976600647,0.0,0.0,0.0,0.0,0.0,0.0,0.0,0.0,0.0
1575033864648724330,226,3155204089000,gps_ref,0.0,0.0,0.0,0.0,0.0,0.0,0.0,0.0,0.0,0.0,0.0,0.0,0.0,-1.29699707031,-0.381469726562,-5.96618652344,0.0,0.0,0.0,0.0,0.0,0.0,0.0,0.0,0.0,0.36367186904,0.21054688096,9.26406288147,0.0,0.0,0.0,0.0,0.0,0.0,0.0,0.0,0.0
1575033864826654528,227,3155304257000,gps_ref,0.0,0.0,0.0,0.0,0.0,0.0,0.0,0.0,0.0,0.0,0.0,0.0,0.0,-0.274658203125,-0.289916992188,-4.82177734375,0.0,0.0,0.0,0.0,0.0,0.0,0.0,0.0,0.0,0.36367186904,0.0382812507451,9.43632793427,0.0,0.0,0.0,0.0,0.0,0.0,0.0,0.0,0.0
1575033864993684510,228,3155404195000,gps_ref,0.0,0.0,0.0,0.0,0.0,0.0,0.0,0.0,0.0,0.0,0.0,0.0,0.0,0.48828125,-0.1220703125,-4.21142578125,0.0,0.0,0.0,0.0,0.0,0.0,0.0,0.0,0.0,0.459375023842,0.478515625,9.45546913147,0.0,0.0,0.0,0.0,0.0,0.0,0.0,0.0,0.0
1575033865169977506,229,3155504143000,gps_ref,0.0,0.0,0.0,0.0,0.0,0.0,0.0,0.0,0.0,0.0,0.0,0.0,0.0,0.564575195312,0.091552734375,-4.73022460938,0.0,0.0,0.0,0.0,0.0,0.0,0.0,0.0,0.0,0.36367186904,0.535937488079,9.41718769073,0.0,0.0,0.0,0.0,0.0,0.0,0.0,0.0,0.0
1575033865352922264,230,3155614247000,gps_ref,0.0,0.0,0.0,0.0,0.0,0.0,0.0,0.0,0.0,0.0,0.0,0.0,0.0,-0.717163085938,-1.08337402344,-4.24194335938,0.0,0.0,0.0,0.0,0.0,0.0,0.0,0.0,0.0,0.344531267881,0.21054688096,9.51289081573,0.0,0.0,0.0,0.0,0.0,0.0,0.0,0.0,0.0
1575033865531382861,231,3155713395000,gps_ref,0.0,0.0,0.0,0.0,0.0,0.0,0.0,0.0,0.0,0.0,0.0,0.0,0.0,-0.48828125,-0.457763671875,-3.15856933594,0.0,0.0,0.0,0.0,0.0,0.0,0.0,0.0,0.0,0.555078148842,0.40195313096,9.70429706573,0.0,0.0,0.0,0.0,0.0,0.0,0.0,0.0,0.0
1575033865691293821,232,3155823261000,gps_ref,0.0,0.0,0.0,0.0,0.0,0.0,0.0,0.0,0.0,0.0,0.0,0.0,0.0,0.701904296875,0.335693359375,-3.44848632812,0.0,0.0,0.0,0.0,0.0,0.0,0.0,0.0,0.0,0.650781273842,0.421093761921,9.26406288147,0.0,0.0,0.0,0.0,0.0,0.0,0.0,0.0,0.0
1575033865882272121,233,3155923296000,gps_ref,0.0,0.0,0.0,0.0,0.0,0.0,0.0,0.0,0.0,0.0,0.0,0.0,0.0,0.457763671875,0.06103515625,-3.14331054688,0.0,0.0,0.0,0.0,0.0,0.0,0.0,0.0,0.0,0.775195330381,0.0574218779802,9.283203125,0.0,0.0,0.0,0.0,0.0,0.0,0.0,0.0,0.0
1575033866038723609,234,3156023817000,gps_ref,0.0,0.0,0.0,0.0,0.0,0.0,0.0,0.0,0.0,0.0,0.0,0.0,0.0,0.686645507812,-0.167846679688,-2.50244140625,0.0,0.0,0.0,0.0,0.0,0.0,0.0,0.0,0.0,0.79433593154,0.363671883941,9.35019540787,0.0,0.0,0.0,0.0,0.0,0.0,0.0,0.0,0.0
1575033866224488615,235,3156123352000,gps_ref,0.0,0.0,0.0,0.0,0.0,0.0,0.0,0.0,0.0,0.0,0.0,0.0,0.0,0.244140625,-0.732421875,-2.59399414062,0.0,0.0,0.0,0.0,0.0,0.0,0.0,0.0,0.0,0.880468785763,0.555078148842,9.34062480927,0.0,0.0,0.0,0.0,0.0,0.0,0.0,0.0,0.0
1575033866385798886,236,3156223213000,gps_ref,0.0,0.0,0.0,0.0,0.0,0.0,0.0,0.0,0.0,0.0,0.0,0.0,0.0,-0.54931640625,-1.40380859375,-2.42614746094,0.0,0.0,0.0,0.0,0.0,0.0,0.0,0.0,0.0,0.803906261921,0.344531267881,9.32148456573,0.0,0.0,0.0,0.0,0.0,0.0,0.0,0.0,0.0
1575033866552358358,237,3156333085000,gps_ref,0.0,0.0,0.0,0.0,0.0,0.0,0.0,0.0,0.0,0.0,0.0,0.0,0.0,-0.534057617188,-0.564575195312,-1.8310546875,0.0,0.0,0.0,0.0,0.0,0.0,0.0,0.0,0.0,0.95703125,0.36367186904,9.5703125,0.0,0.0,0.0,0.0,0.0,0.0,0.0,0.0,0.0
1575033866747208852,238,3156433085000,gps_ref,0.0,0.0,0.0,0.0,0.0,0.0,0.0,0.0,0.0,0.0,0.0,0.0,0.0,-0.244140625,0.137329101562,-1.78527832031,0.0,0.0,0.0,0.0,0.0,0.0,0.0,0.0,0.0,0.823046863079,0.421093761921,9.76171875,0.0,0.0,0.0,0.0,0.0,0.0,0.0,0.0,0.0
1575033866903993833,239,3156533084000,gps_ref,0.0,0.0,0.0,0.0,0.0,0.0,0.0,0.0,0.0,0.0,0.0,0.0,0.0,-0.3662109375,0.625610351562,-1.93786621094,0.0,0.0,0.0,0.0,0.0,0.0,0.0,0.0,0.0,0.823046863079,0.421093761921,9.4937505722,0.0,0.0,0.0,0.0,0.0,0.0,0.0,0.0,0.0
1575033867089353804,240,3156632586000,gps_ref,0.0,0.0,0.0,0.0,0.0,0.0,0.0,0.0,0.0,0.0,0.0,0.0,0.0,0.67138671875,0.717163085938,-1.51062011719,0.0,0.0,0.0,0.0,0.0,0.0,0.0,0.0,0.0,0.698632836342,0.133984376676,9.1970705986,0.0,0.0,0.0,0.0,0.0,0.0,0.0,0.0,0.0
1575033867265139897,241,3156733540000,gps_ref,0.0,0.0,0.0,0.0,0.0,0.0,0.0,0.0,0.0,0.0,0.0,0.0,0.0,0.0762939453125,0.67138671875,-1.08337402344,0.0,0.0,0.0,0.0,0.0,0.0,0.0,0.0,0.0,0.641210973263,0.363671883941,9.31191396713,0.0,0.0,0.0,0.0,0.0,0.0,0.0,0.0,0.0
1575033867465559873,242,3156843370000,gps_ref,0.0,0.0,0.0,0.0,0.0,0.0,0.0,0.0,0.0,0.0,0.0,0.0,0.0,0.48828125,1.40380859375,-1.31225585938,0.0,0.0,0.0,0.0,0.0,0.0,0.0,0.0,0.0,0.468945324421,0.516796886921,9.51289081573,0.0,0.0,0.0,0.0,0.0,0.0,0.0,0.0,0.0
1575033867644667860,243,3156953075000,gps_ref,0.0,0.0,0.0,0.0,0.0,0.0,0.0,0.0,0.0,0.0,0.0,0.0,0.0,-0.30517578125,1.00708007812,-1.29699707031,0.0,0.0,0.0,0.0,0.0,0.0,0.0,0.0,0.0,0.325390636921,0.344531267881,9.1875,0.0,0.0,0.0,0.0,0.0,0.0,0.0,0.0,0.0
1575033867817082830,244,3157052704000,gps_ref,0.0,0.0,0.0,0.0,0.0,0.0,0.0,0.0,0.0,0.0,0.0,0.0,0.0,0.0457763671875,0.244140625,-0.9765625,0.0,0.0,0.0,0.0,0.0,0.0,0.0,0.0,0.0,0.449804708362,0.344531267881,9.36933612823,0.0,0.0,0.0,0.0,0.0,0.0,0.0,0.0,0.0
1575033867989113944,245,3157162565000,gps_ref,0.0,0.0,0.0,0.0,0.0,0.0,0.0,0.0,0.0,0.0,0.0,0.0,0.0,0.167846679688,-0.198364257812,-1.11389160156,0.0,0.0,0.0,0.0,0.0,0.0,0.0,0.0,0.0,0.277539074421,0.401953145862,9.56074237823,0.0,0.0,0.0,0.0,0.0,0.0,0.0,0.0,0.0
1575033868190786926,246,3157262029000,gps_ref,0.0,0.0,0.0,0.0,0.0,0.0,0.0,0.0,0.0,0.0,0.0,0.0,0.0,0.213623046875,0.30517578125,-1.32751464844,0.0,0.0,0.0,0.0,0.0,0.0,0.0,0.0,0.0,0.344531267881,0.36367186904,9.857421875,0.0,0.0,0.0,0.0,0.0,0.0,0.0,0.0,0.0
1575033868384791185,247,3157372708000,gps_ref,0.0,0.0,0.0,0.0,0.0,0.0,0.0,0.0,0.0,0.0,0.0,0.0,0.0,-0.3662109375,1.5869140625,-1.25122070312,0.0,0.0,0.0,0.0,0.0,0.0,0.0,0.0,0.0,0.22968749702,0.44980469346,9.37890625,0.0,0.0,0.0,0.0,0.0,0.0,0.0,0.0,0.0
1575033868568118340,248,3157462029000,gps_ref,0.0,0.0,0.0,0.0,0.0,0.0,0.0,0.0,0.0,0.0,0.0,0.0,0.0,-0.625610351562,1.37329101562,-1.08337402344,0.0,0.0,0.0,0.0,0.0,0.0,0.0,0.0,0.0,0.15312500298,0.3828125,9.1109380722,0.0,0.0,0.0,0.0,0.0,0.0,0.0,0.0,0.0
1575033868756264633,249,3157582028000,gps_ref,0.0,0.0,0.0,0.0,0.0,0.0,0.0,0.0,0.0,0.0,0.0,0.0,0.0,-0.595092773438,0.778198242188,-1.35803222656,0.0,0.0,0.0,0.0,0.0,0.0,0.0,0.0,0.0,0.21054688096,0.30625000596,9.5703125,0.0,0.0,0.0,0.0,0.0,0.0,0.0,0.0,0.0
1575033868930318393,250,3157672302000,gps_ref,0.0,0.0,0.0,0.0,0.0,0.0,0.0,0.0,0.0,0.0,0.0,0.0,0.0,0.320434570312,0.228881835938,-1.26647949219,0.0,0.0,0.0,0.0,0.0,0.0,0.0,0.0,0.0,0.26796874404,0.11484375596,9.2066411972,0.0,0.0,0.0,0.0,0.0,0.0,0.0,0.0,0.0
1575033869114063019,251,3157782028000,gps_ref,0.0,0.0,0.0,0.0,0.0,0.0,0.0,0.0,0.0,0.0,0.0,0.0,0.0,0.808715820312,-0.732421875,-1.32751464844,0.0,0.0,0.0,0.0,0.0,0.0,0.0,0.0,0.0,0.24882812798,0.30625000596,8.97695350647,0.0,0.0,0.0,0.0,0.0,0.0,0.0,0.0,0.0
1575033869306314502,252,3157882109000,gps_ref,0.0,0.0,0.0,0.0,0.0,0.0,0.0,0.0,0.0,0.0,0.0,0.0,0.0,1.11389160156,-0.91552734375,-1.15966796875,0.0,0.0,0.0,0.0,0.0,0.0,0.0,0.0,0.0,0.229687511921,0.30625000596,9.474609375,0.0,0.0,0.0,0.0,0.0,0.0,0.0,0.0,0.0
1575033869512161941,253,3158001882000,gps_ref,0.0,0.0,0.0,0.0,0.0,0.0,0.0,0.0,0.0,0.0,0.0,0.0,0.0,0.137329101562,-0.885009765625,-1.26647949219,0.0,0.0,0.0,0.0,0.0,0.0,0.0,0.0,0.0,0.19140625,0.478515625,9.5894536972,0.0,0.0,0.0,0.0,0.0,0.0,0.0,0.0,0.0
1575033869703577859,254,3158092291000,gps_ref,0.0,0.0,0.0,0.0,0.0,0.0,0.0,0.0,0.0,0.0,0.0,0.0,0.0,0.564575195312,0.0762939453125,-1.3427734375,0.0,0.0,0.0,0.0,0.0,0.0,0.0,0.0,0.0,0.095703125,0.344531267881,9.64687538147,0.0,0.0,0.0,0.0,0.0,0.0,0.0,0.0,0.0
1575033869896081601,255,3158201252000,gps_ref,0.0,0.0,0.0,0.0,0.0,0.0,0.0,0.0,0.0,0.0,0.0,0.0,0.0,0.259399414062,0.48828125,-1.35803222656,0.0,0.0,0.0,0.0,0.0,0.0,0.0,0.0,0.0,0.19140625,0.459375023842,9.45546913147,0.0,0.0,0.0,0.0,0.0,0.0,0.0,0.0,0.0
1575033870079579694,256,3158301223000,gps_ref,0.0,0.0,0.0,0.0,0.0,0.0,0.0,0.0,0.0,0.0,0.0,0.0,0.0,0.595092773438,0.823974609375,-1.37329101562,0.0,0.0,0.0,0.0,0.0,0.0,0.0,0.0,0.0,0.133984375745,0.40195313096,9.27363300323,0.0,0.0,0.0,0.0,0.0,0.0,0.0,0.0,0.0
1575033870258427564,257,3158411028000,gps_ref,0.0,0.0,0.0,0.0,0.0,0.0,0.0,0.0,0.0,0.0,0.0,0.0,0.0,0.396728515625,0.091552734375,-1.23596191406,0.0,0.0,0.0,0.0,0.0,0.0,0.0,0.0,0.0,0.15312500298,0.325390636921,9.3980474472,0.0,0.0,0.0,0.0,0.0,0.0,0.0,0.0,0.0
1575033870472492232,258,3158511028000,gps_ref,0.0,0.0,0.0,0.0,0.0,0.0,0.0,0.0,0.0,0.0,0.0,0.0,0.0,0.3662109375,-0.289916992188,-1.17492675781,0.0,0.0,0.0,0.0,0.0,0.0,0.0,0.0,0.0,0.191406257451,0.516796886921,9.35976600647,0.0,0.0,0.0,0.0,0.0,0.0,0.0,0.0,0.0
1575033870667498056,259,3158621193000,gps_ref,0.0,0.0,0.0,0.0,0.0,0.0,0.0,0.0,0.0,0.0,0.0,0.0,0.0,0.717163085938,0.0457763671875,-1.3427734375,0.0,0.0,0.0,0.0,0.0,0.0,0.0,0.0,0.0,0.1435546875,0.373242199421,9.43632793427,0.0,0.0,0.0,0.0,0.0,0.0,0.0,0.0,0.0
1575033870845666642,260,3158721812000,gps_ref,0.0,0.0,0.0,0.0,0.0,0.0,0.0,0.0,0.0,0.0,0.0,0.0,0.0,0.991821289062,0.396728515625,-1.26647949219,0.0,0.0,0.0,0.0,0.0,0.0,0.0,0.0,0.0,0.0957031287253,0.44980469346,9.58945322037,0.0,0.0,0.0,0.0,0.0,0.0,0.0,0.0,0.0
1575033871028274964,261,3158830811000,gps_ref,0.0,0.0,0.0,0.0,0.0,0.0,0.0,0.0,0.0,0.0,0.0,0.0,0.0,-0.259399414062,0.823974609375,-1.3427734375,0.0,0.0,0.0,0.0,0.0,0.0,0.0,0.0,0.0,0.0478515625,0.53593750298,9.5320315361,0.0,0.0,0.0,0.0,0.0,0.0,0.0,0.0,0.0
1575033871206403901,262,3158931489000,gps_ref,0.0,0.0,0.0,0.0,0.0,0.0,0.0,0.0,0.0,0.0,0.0,0.0,0.0,-0.259399414062,0.701904296875,-1.31225585938,0.0,0.0,0.0,0.0,0.0,0.0,0.0,0.0,0.0,-0.0957031287253,0.42109374702,9.3884768486,0.0,0.0,0.0,0.0,0.0,0.0,0.0,0.0,0.0
1575033871385471216,263,3159031085000,gps_ref,0.0,0.0,0.0,0.0,0.0,0.0,0.0,0.0,0.0,0.0,0.0,0.0,0.0,-0.167846679688,0.198364257812,-1.23596191406,0.0,0.0,0.0,0.0,0.0,0.0,0.0,0.0,0.0,-0.0574218779802,0.344531267881,9.37890625,0.0,0.0,0.0,0.0,0.0,0.0,0.0,0.0,0.0
1575033871577351642,264,3159131028000,gps_ref,0.0,0.0,0.0,0.0,0.0,0.0,0.0,0.0,0.0,0.0,0.0,0.0,0.0,0.67138671875,0.198364257812,-1.44958496094,0.0,0.0,0.0,0.0,0.0,0.0,0.0,0.0,0.0,-0.0765625014901,0.421093761921,9.3023443222,0.0,0.0,0.0,0.0,0.0,0.0,0.0,0.0,0.0
1575033871732825240,265,3159220851000,gps_ref,0.0,0.0,0.0,0.0,0.0,0.0,0.0,0.0,0.0,0.0,0.0,0.0,0.0,0.8544921875,0.30517578125,-1.49536132812,0.0,0.0,0.0,0.0,0.0,0.0,0.0,0.0,0.0,-0.0478515625,0.44980469346,9.2353515625,0.0,0.0,0.0,0.0,0.0,0.0,0.0,0.0,0.0
1575033871926414493,266,3159331084000,gps_ref,0.0,0.0,0.0,0.0,0.0,0.0,0.0,0.0,0.0,0.0,0.0,0.0,0.0,0.167846679688,-0.6103515625,-1.220703125,0.0,0.0,0.0,0.0,0.0,0.0,0.0,0.0,0.0,0.0287109380588,0.5263671875,9.5320315361,0.0,0.0,0.0,0.0,0.0,0.0,0.0,0.0,0.0
1575033872118535434,267,3159441441000,gps_ref,0.0,0.0,0.0,0.0,0.0,0.0,0.0,0.0,0.0,0.0,0.0,0.0,0.0,0.18310546875,-0.350952148438,-1.25122070312,0.0,0.0,0.0,0.0,0.0,0.0,0.0,0.0,0.0,0.0574218779802,0.344531267881,9.60859394073,0.0,0.0,0.0,0.0,0.0,0.0,0.0,0.0,0.0
1575033872296786118,268,3159540387000,gps_ref,0.0,0.0,0.0,0.0,0.0,0.0,0.0,0.0,0.0,0.0,0.0,0.0,0.0,0.228881835938,0.198364257812,-1.41906738281,0.0,0.0,0.0,0.0,0.0,0.0,0.0,0.0,0.0,0.133984375745,0.459375008941,9.45546865463,0.0,0.0,0.0,0.0,0.0,0.0,0.0,0.0,0.0
1575033872481555006,269,3159640407000,gps_ref,0.0,0.0,0.0,0.0,0.0,0.0,0.0,0.0,0.0,0.0,0.0,0.0,0.0,0.30517578125,0.381469726562,-1.48010253906,0.0,0.0,0.0,0.0,0.0,0.0,0.0,0.0,0.0,0.15312500298,0.516796886921,9.26406288147,0.0,0.0,0.0,0.0,0.0,0.0,0.0,0.0,0.0
1575033872648802552,270,3159740540000,gps_ref,0.0,0.0,0.0,0.0,0.0,0.0,0.0,0.0,0.0,0.0,0.0,0.0,0.0,-0.198364257812,0.167846679688,-1.31225585938,0.0,0.0,0.0,0.0,0.0,0.0,0.0,0.0,0.0,0.0382812507451,0.516796886921,9.55117225647,0.0,0.0,0.0,0.0,0.0,0.0,0.0,0.0,0.0
1575033872829025422,271,3159840320000,gps_ref,0.0,0.0,0.0,0.0,0.0,0.0,0.0,0.0,0.0,0.0,0.0,0.0,0.0,-0.289916992188,0.534057617188,-1.41906738281,0.0,0.0,0.0,0.0,0.0,0.0,0.0,0.0,0.0,-0.287109375,0.440234392881,9.474609375,0.0,0.0,0.0,0.0,0.0,0.0,0.0,0.0,0.0
1575033873008988885,272,3159960429000,gps_ref,0.0,0.0,0.0,0.0,0.0,0.0,0.0,0.0,0.0,0.0,0.0,0.0,0.0,0.274658203125,1.61743164062,-1.55639648438,0.0,0.0,0.0,0.0,0.0,0.0,0.0,0.0,0.0,0.631640642881,0.0382812470198,10.1828126907,0.0,0.0,0.0,0.0,0.0,0.0,0.0,0.0,0.0
1575033873184471905,273,3160060081000,gps_ref,0.0,0.0,0.0,0.0,0.0,0.0,0.0,0.0,0.0,0.0,0.0,0.0,0.0,3.25012207031,2.9296875,-1.86157226562,0.0,0.0,0.0,0.0,0.0,0.0,0.0,0.0,0.0,0.784765660763,0.15312500298,8.74726581573,0.0,0.0,0.0,0.0,0.0,0.0,0.0,0.0,0.0
1575033873336510957,274,3160160098000,gps_ref,0.0,0.0,0.0,0.0,0.0,0.0,0.0,0.0,0.0,0.0,0.0,0.0,0.0,-0.54931640625,2.36511230469,-1.96838378906,0.0,0.0,0.0,0.0,0.0,0.0,0.0,0.0,0.0,-0.095703125,0.3828125,8.2496099472,0.0,0.0,0.0,0.0,0.0,0.0,0.0,0.0,0.0
1575033873499666583,275,3160260029000,gps_ref,0.0,0.0,0.0,0.0,0.0,0.0,0.0,0.0,0.0,0.0,0.0,0.0,0.0,-1.40380859375,0.1220703125,-1.73950195312,0.0,0.0,0.0,0.0,0.0,0.0,0.0,0.0,0.0,-0.21054688096,0.0765625014901,9.3023443222,0.0,0.0,0.0,0.0,0.0,0.0,0.0,0.0,0.0
1575033873666820885,276,3160380117000,gps_ref,0.0,0.0,0.0,0.0,0.0,0.0,0.0,0.0,0.0,0.0,0.0,0.0,0.0,-0.198364257812,-3.31115722656,-2.67028808594,0.0,0.0,0.0,0.0,0.0,0.0,0.0,0.0,0.0,0.15312500298,0.535937488079,9.05351543427,0.0,0.0,0.0,0.0,0.0,0.0,0.0,0.0,0.0
1575033873855201037,277,3160480201000,gps_ref,0.0,0.0,0.0,0.0,0.0,0.0,0.0,0.0,0.0,0.0,0.0,0.0,0.0,-0.701904296875,-1.41906738281,-3.14331054688,0.0,0.0,0.0,0.0,0.0,0.0,0.0,0.0,0.0,0.21054688096,0.325390636921,9.474609375,0.0,0.0,0.0,0.0,0.0,0.0,0.0,0.0,0.0
1575033874029213239,278,3160590368000,gps_ref,0.0,0.0,0.0,0.0,0.0,0.0,0.0,0.0,0.0,0.0,0.0,0.0,0.0,0.167846679688,0.6103515625,-3.32641601562,0.0,0.0,0.0,0.0,0.0,0.0,0.0,0.0,0.0,0.344531267881,0.26796874404,9.0152349472,0.0,0.0,0.0,0.0,0.0,0.0,0.0,0.0,0.0
1575033874210961172,279,3160690366000,gps_ref,0.0,0.0,0.0,0.0,0.0,0.0,0.0,0.0,0.0,0.0,0.0,0.0,0.0,0.0152587890625,1.48010253906,-3.5400390625,0.0,0.0,0.0,0.0,0.0,0.0,0.0,0.0,0.0,0.0191406253725,0.26796874404,9.283203125,0.0,0.0,0.0,0.0,0.0,0.0,0.0,0.0,0.0
1575033874389360867,280,3160789061000,gps_ref,0.0,0.0,0.0,0.0,0.0,0.0,0.0,0.0,0.0,0.0,0.0,0.0,0.0,0.442504882812,1.02233886719,-3.60107421875,0.0,0.0,0.0,0.0,0.0,0.0,0.0,0.0,0.0,0.0382812507451,0.287109375,9.26406288147,0.0,0.0,0.0,0.0,0.0,0.0,0.0,0.0,0.0
1575033874576998519,281,3160889038000,gps_ref,0.0,0.0,0.0,0.0,0.0,0.0,0.0,0.0,0.0,0.0,0.0,0.0,0.0,0.289916992188,-0.839233398438,-4.18090820312,0.0,0.0,0.0,0.0,0.0,0.0,0.0,0.0,0.0,0.0669921878725,0.40195313096,9.35976600647,0.0,0.0,0.0,0.0,0.0,0.0,0.0,0.0,0.0
1575033874745423150,282,3160989797000,gps_ref,0.0,0.0,0.0,0.0,0.0,0.0,0.0,0.0,0.0,0.0,0.0,0.0,0.0,0.244140625,-0.91552734375,-4.45556640625,0.0,0.0,0.0,0.0,0.0,0.0,0.0,0.0,0.0,-0.20097656548,0.0191406263039,9.76171922684,0.0,0.0,0.0,0.0,0.0,0.0,0.0,0.0,0.0
1575033874909774664,283,3161089037000,gps_ref,0.0,0.0,0.0,0.0,0.0,0.0,0.0,0.0,0.0,0.0,0.0,0.0,0.0,-1.54113769531,-0.717163085938,-5.56945800781,0.0,0.0,0.0,0.0,0.0,0.0,0.0,0.0,0.0,-0.344531267881,-0.440234392881,7.54140663147,0.0,0.0,0.0,0.0,0.0,0.0,0.0,0.0,0.0
1575033875104156117,284,3161199099000,gps_ref,0.0,0.0,0.0,0.0,0.0,0.0,0.0,0.0,0.0,0.0,0.0,0.0,0.0,-3.57055664062,-1.67846679688,-5.58471679688,0.0,0.0,0.0,0.0,0.0,0.0,0.0,0.0,0.0,0.0765625014901,0.0765625014901,9.13007831573,0.0,0.0,0.0,0.0,0.0,0.0,0.0,0.0,0.0
1575033875286330156,285,3161289037000,gps_ref,0.0,0.0,0.0,0.0,0.0,0.0,0.0,0.0,0.0,0.0,0.0,0.0,0.0,0.259399414062,-1.52587890625,-6.33239746094,0.0,0.0,0.0,0.0,0.0,0.0,0.0,0.0,0.0,0.0765625014901,0.689062535763,10.3742189407,0.0,0.0,0.0,0.0,0.0,0.0,0.0,0.0,0.0
1575033875472215112,286,3161399498000,gps_ref,0.0,0.0,0.0,0.0,0.0,0.0,0.0,0.0,0.0,0.0,0.0,0.0,0.0,-1.06811523438,1.26647949219,-6.66809082031,0.0,0.0,0.0,0.0,0.0,0.0,0.0,0.0,0.0,0.21054688096,0.229687511921,10.8910160065,0.0,0.0,0.0,0.0,0.0,0.0,0.0,0.0,0.0
1575033875662828347,287,3161499370000,gps_ref,0.0,0.0,0.0,0.0,0.0,0.0,0.0,0.0,0.0,0.0,0.0,0.0,0.0,-0.0457763671875,2.41088867188,-6.72912597656,0.0,0.0,0.0,0.0,0.0,0.0,0.0,0.0,0.0,0.0765625014901,0.0,10.1636724472,0.0,0.0,0.0,0.0,0.0,0.0,0.0,0.0,0.0
1575033875864644968,288,3161609028000,gps_ref,0.0,0.0,0.0,0.0,0.0,0.0,0.0,0.0,0.0,0.0,0.0,0.0,0.0,0.656127929688,2.70080566406,-7.18688964844,0.0,0.0,0.0,0.0,0.0,0.0,0.0,0.0,0.0,0.172265633941,0.24882812798,8.9195318222,0.0,0.0,0.0,0.0,0.0,0.0,0.0,0.0,0.0
1575033876040279706,289,3161709075000,gps_ref,0.0,0.0,0.0,0.0,0.0,0.0,0.0,0.0,0.0,0.0,0.0,0.0,0.0,-1.06811523438,1.0986328125,-8.33129882812,0.0,0.0,0.0,0.0,0.0,0.0,0.0,0.0,0.0,0.0,0.26796874404,8.517578125,0.0,0.0,0.0,0.0,0.0,0.0,0.0,0.0,0.0
1575033876231980716,290,3161808428000,gps_ref,0.0,0.0,0.0,0.0,0.0,0.0,0.0,0.0,0.0,0.0,0.0,0.0,0.0,-0.411987304688,-0.732421875,-9.32312011719,0.0,0.0,0.0,0.0,0.0,0.0,0.0,0.0,0.0,0.0191406253725,-0.172265633941,8.7185549736,0.0,0.0,0.0,0.0,0.0,0.0,0.0,0.0,0.0
1575033876410016253,291,3161909537000,gps_ref,0.0,0.0,0.0,0.0,0.0,0.0,0.0,0.0,0.0,0.0,0.0,0.0,0.0,0.396728515625,-1.08337402344,-9.71984863281,0.0,0.0,0.0,0.0,0.0,0.0,0.0,0.0,0.0,0.0191406253725,-0.153124997392,9.58945322037,0.0,0.0,0.0,0.0,0.0,0.0,0.0,0.0,0.0
1575033876609670385,292,3162008087000,gps_ref,0.0,0.0,0.0,0.0,0.0,0.0,0.0,0.0,0.0,0.0,0.0,0.0,0.0,0.900268554688,0.244140625,-10.3759765625,0.0,0.0,0.0,0.0,0.0,0.0,0.0,0.0,0.0,-0.0382812507451,0.0,10.3167972565,0.0,0.0,0.0,0.0,0.0,0.0,0.0,0.0,0.0
1575033876806475215,293,3162108121000,gps_ref,0.0,0.0,0.0,0.0,0.0,0.0,0.0,0.0,0.0,0.0,0.0,0.0,0.0,1.41906738281,1.81579589844,-11.2762451172,0.0,0.0,0.0,0.0,0.0,0.0,0.0,0.0,0.0,-0.0191406253725,0.095703125,9.83828163147,0.0,0.0,0.0,0.0,0.0,0.0,0.0,0.0,0.0
1575033877000541696,294,3162218226000,gps_ref,0.0,0.0,0.0,0.0,0.0,0.0,0.0,0.0,0.0,0.0,0.0,0.0,0.0,0.0,1.49536132812,-11.4440917969,0.0,0.0,0.0,0.0,0.0,0.0,0.0,0.0,0.0,-0.0574218779802,0.15312500298,9.32148456573,0.0,0.0,0.0,0.0,0.0,0.0,0.0,0.0,0.0
1575033877178759120,295,3162308022000,gps_ref,0.0,0.0,0.0,0.0,0.0,0.0,0.0,0.0,0.0,0.0,0.0,0.0,0.0,-0.9765625,0.534057617188,-12.3748779297,0.0,0.0,0.0,0.0,0.0,0.0,0.0,0.0,0.0,-0.0478515634313,0.16269531846,9.03437519073,0.0,0.0,0.0,0.0,0.0,0.0,0.0,0.0,0.0
1575033877375108172,296,3162418263000,gps_ref,0.0,0.0,0.0,0.0,0.0,0.0,0.0,0.0,0.0,0.0,0.0,0.0,0.0,-1.90734863281,0.167846679688,-13.4124755859,0.0,0.0,0.0,0.0,0.0,0.0,0.0,0.0,0.0,-0.0574218779802,0.0191406253725,9.24492168427,0.0,0.0,0.0,0.0,0.0,0.0,0.0,0.0,0.0
1575033877563027910,297,3162528173000,gps_ref,0.0,0.0,0.0,0.0,0.0,0.0,0.0,0.0,0.0,0.0,0.0,0.0,0.0,-1.08337402344,0.091552734375,-13.9923095703,0.0,0.0,0.0,0.0,0.0,0.0,0.0,0.0,0.0,0.0191406253725,-0.30625000596,9.666015625,0.0,0.0,0.0,0.0,0.0,0.0,0.0,0.0,0.0
1575033877767758707,298,3162628151000,gps_ref,0.0,0.0,0.0,0.0,0.0,0.0,0.0,0.0,0.0,0.0,0.0,0.0,0.0,-0.1220703125,0.335693359375,-14.2517089844,0.0,0.0,0.0,0.0,0.0,0.0,0.0,0.0,0.0,-0.11484375596,-0.344531267881,9.51289081573,0.0,0.0,0.0,0.0,0.0,0.0,0.0,0.0,0.0
1575033877947514193,299,3162718320000,gps_ref,0.0,0.0,0.0,0.0,0.0,0.0,0.0,0.0,0.0,0.0,0.0,0.0,0.0,0.946044921875,-0.1220703125,-14.7705078125,0.0,0.0,0.0,0.0,0.0,0.0,0.0,0.0,0.0,-0.095703125,-0.24882812798,9.24492168427,0.0,0.0,0.0,0.0,0.0,0.0,0.0,0.0,0.0
1575033878145615359,300,3162828227000,gps_ref,0.0,0.0,0.0,0.0,0.0,0.0,0.0,0.0,0.0,0.0,0.0,0.0,0.0,0.274658203125,-0.640869140625,-15.1977539062,0.0,0.0,0.0,0.0,0.0,0.0,0.0,0.0,0.0,0.13398437202,-0.13398437202,9.43632793427,0.0,0.0,0.0,0.0,0.0,0.0,0.0,0.0,0.0
1575033878352439499,301,3162938539000,gps_ref,0.0,0.0,0.0,0.0,0.0,0.0,0.0,0.0,0.0,0.0,0.0,0.0,0.0,0.30517578125,0.167846679688,-15.0299072266,0.0,0.0,0.0,0.0,0.0,0.0,0.0,0.0,0.0,0.0765625014901,-0.11484375596,9.58945322037,0.0,0.0,0.0,0.0,0.0,0.0,0.0,0.0,0.0
1575033878530900935,302,3163038114000,gps_ref,0.0,0.0,0.0,0.0,0.0,0.0,0.0,0.0,0.0,0.0,0.0,0.0,0.0,-0.0762939453125,0.961303710938,-14.9993896484,0.0,0.0,0.0,0.0,0.0,0.0,0.0,0.0,0.0,-0.0574218779802,-0.172265633941,9.51289081573,0.0,0.0,0.0,0.0,0.0,0.0,0.0,0.0,0.0
1575033878715723799,303,3163127423000,gps_ref,0.0,0.0,0.0,0.0,0.0,0.0,0.0,0.0,0.0,0.0,0.0,0.0,0.0,-0.244140625,0.0762939453125,-15.4876708984,0.0,0.0,0.0,0.0,0.0,0.0,0.0,0.0,0.0,0.0,-0.095703125,9.45546913147,0.0,0.0,0.0,0.0,0.0,0.0,0.0,0.0,0.0
1575033878923841174,304,3163257148000,gps_ref,0.0,0.0,0.0,0.0,0.0,0.0,0.0,0.0,0.0,0.0,0.0,0.0,0.0,0.442504882812,-0.8544921875,-15.8996582031,0.0,0.0,0.0,0.0,0.0,0.0,0.0,0.0,0.0,-0.0191406253725,-0.325390636921,9.43632793427,0.0,0.0,0.0,0.0,0.0,0.0,0.0,0.0,0.0
1575033879091117511,305,3163337029000,gps_ref,0.0,0.0,0.0,0.0,0.0,0.0,0.0,0.0,0.0,0.0,0.0,0.0,0.0,0.6103515625,-0.3662109375,-15.9759521484,0.0,0.0,0.0,0.0,0.0,0.0,0.0,0.0,0.0,0.0191406253725,-0.0957031268626,9.5416021347,0.0,0.0,0.0,0.0,0.0,0.0,0.0,0.0,0.0
1575033879285657720,306,3163457028000,gps_ref,0.0,0.0,0.0,0.0,0.0,0.0,0.0,0.0,0.0,0.0,0.0,0.0,0.0,0.213623046875,-0.259399414062,-16.3116455078,0.0,0.0,0.0,0.0,0.0,0.0,0.0,0.0,0.0,0.13398437202,0.095703125,9.5894536972,0.0,0.0,0.0,0.0,0.0,0.0,0.0,0.0,0.0
1575033879459673411,307,3163547058000,gps_ref,0.0,0.0,0.0,0.0,0.0,0.0,0.0,0.0,0.0,0.0,0.0,0.0,0.0,0.0152587890625,0.54931640625,-16.5252685547,0.0,0.0,0.0,0.0,0.0,0.0,0.0,0.0,0.0,0.114843750373,-0.12441406399,9.13007831573,0.0,0.0,0.0,0.0,0.0,0.0,0.0,0.0,0.0
1575033879647005581,308,3163657181000,gps_ref,0.0,0.0,0.0,0.0,0.0,0.0,0.0,0.0,0.0,0.0,0.0,0.0,0.0,-0.457763671875,-0.625610351562,-16.5252685547,0.0,0.0,0.0,0.0,0.0,0.0,0.0,0.0,0.0,0.15312500298,-0.0382812507451,9.43632793427,0.0,0.0,0.0,0.0,0.0,0.0,0.0,0.0,0.0
1575033879831042476,309,3163757608000,gps_ref,0.0,0.0,0.0,0.0,0.0,0.0,0.0,0.0,0.0,0.0,0.0,0.0,0.0,0.106811523438,-0.54931640625,-16.8609619141,0.0,0.0,0.0,0.0,0.0,0.0,0.0,0.0,0.0,0.13398437202,-0.11484374851,9.58945322037,0.0,0.0,0.0,0.0,0.0,0.0,0.0,0.0,0.0
1575033880013057811,310,3163866761000,gps_ref,0.0,0.0,0.0,0.0,0.0,0.0,0.0,0.0,0.0,0.0,0.0,0.0,0.0,-0.244140625,0.228881835938,-16.8151855469,0.0,0.0,0.0,0.0,0.0,0.0,0.0,0.0,0.0,0.143554694951,-0.18183594197,9.7234377861,0.0,0.0,0.0,0.0,0.0,0.0,0.0,0.0,0.0
1575033880201153668,311,3163968259000,gps_ref,0.0,0.0,0.0,0.0,0.0,0.0,0.0,0.0,0.0,0.0,0.0,0.0,0.0,-0.381469726562,0.167846679688,-16.4794921875,0.0,0.0,0.0,0.0,0.0,0.0,0.0,0.0,0.0,0.0765625014901,-0.0669921897352,9.5320315361,0.0,0.0,0.0,0.0,0.0,0.0,0.0,0.0,0.0
1575033880390804091,312,3164067836000,gps_ref,0.0,0.0,0.0,0.0,0.0,0.0,0.0,0.0,0.0,0.0,0.0,0.0,0.0,-0.885009765625,-0.213623046875,-16.5557861328,0.0,0.0,0.0,0.0,0.0,0.0,0.0,0.0,0.0,0.13398437202,-0.0191406253725,9.45546913147,0.0,0.0,0.0,0.0,0.0,0.0,0.0,0.0,0.0
1575033880582806352,313,3164167611000,gps_ref,0.0,0.0,0.0,0.0,0.0,0.0,0.0,0.0,0.0,0.0,0.0,0.0,0.0,-0.869750976562,-0.350952148438,-16.5710449219,0.0,0.0,0.0,0.0,0.0,0.0,0.0,0.0,0.0,0.172265633941,-0.21054688096,9.55117225647,0.0,0.0,0.0,0.0,0.0,0.0,0.0,0.0,0.0
1575033880769153120,314,3164256580000,gps_ref,0.0,0.0,0.0,0.0,0.0,0.0,0.0,0.0,0.0,0.0,0.0,0.0,0.0,0.106811523438,-0.228881835938,-16.5252685547,0.0,0.0,0.0,0.0,0.0,0.0,0.0,0.0,0.0,0.10527344048,-0.29667969048,9.37890672684,0.0,0.0,0.0,0.0,0.0,0.0,0.0,0.0,0.0
1575033880955611657,315,3164367959000,gps_ref,0.0,0.0,0.0,0.0,0.0,0.0,0.0,0.0,0.0,0.0,0.0,0.0,0.0,0.274658203125,-0.411987304688,-16.3726806641,0.0,0.0,0.0,0.0,0.0,0.0,0.0,0.0,0.0,0.0765625014901,-0.172265633941,9.80000019073,0.0,0.0,0.0,0.0,0.0,0.0,0.0,0.0,0.0
1575033881146355357,316,3164467087000,gps_ref,0.0,0.0,0.0,0.0,0.0,0.0,0.0,0.0,0.0,0.0,0.0,0.0,0.0,0.9765625,0.167846679688,-16.3421630859,0.0,0.0,0.0,0.0,0.0,0.0,0.0,0.0,0.0,0.18183593452,-0.0765625014901,9.47460985184,0.0,0.0,0.0,0.0,0.0,0.0,0.0,0.0,0.0
1575033881377655396,317,3164586084000,gps_ref,0.0,0.0,0.0,0.0,0.0,0.0,0.0,0.0,0.0,0.0,0.0,0.0,0.0,0.625610351562,0.411987304688,-16.1437988281,0.0,0.0,0.0,0.0,0.0,0.0,0.0,0.0,0.0,0.19140625,0.095703125,9.22578144073,0.0,0.0,0.0,0.0,0.0,0.0,0.0,0.0,0.0
1575033881565318683,318,3164696380000,gps_ref,0.0,0.0,0.0,0.0,0.0,0.0,0.0,0.0,0.0,0.0,0.0,0.0,0.0,-0.259399414062,-0.1220703125,-16.0827636719,0.0,0.0,0.0,0.0,0.0,0.0,0.0,0.0,0.0,0.26796874404,0.0765625014901,9.3023443222,0.0,0.0,0.0,0.0,0.0,0.0,0.0,0.0,0.0
1575033881775672471,319,3164796072000,gps_ref,0.0,0.0,0.0,0.0,0.0,0.0,0.0,0.0,0.0,0.0,0.0,0.0,0.0,-0.54931640625,-0.289916992188,-15.8538818359,0.0,0.0,0.0,0.0,0.0,0.0,0.0,0.0,0.0,0.516796886921,-0.21054688096,9.474609375,0.0,0.0,0.0,0.0,0.0,0.0,0.0,0.0,0.0
1575033881960117181,320,3164896021000,gps_ref,0.0,0.0,0.0,0.0,0.0,0.0,0.0,0.0,0.0,0.0,0.0,0.0,0.0,-0.747680664062,-0.42724609375,-15.6707763672,0.0,0.0,0.0,0.0,0.0,0.0,0.0,0.0,0.0,0.363671883941,-0.19140625,9.4363284111,0.0,0.0,0.0,0.0,0.0,0.0,0.0,0.0,0.0
1575033882132600526,321,3164997058000,gps_ref,0.0,0.0,0.0,0.0,0.0,0.0,0.0,0.0,0.0,0.0,0.0,0.0,0.0,0.152587890625,-0.396728515625,-15.8538818359,0.0,0.0,0.0,0.0,0.0,0.0,0.0,0.0,0.0,0.32539062202,-0.114843751304,9.6373052597,0.0,0.0,0.0,0.0,0.0,0.0,0.0,0.0,0.0
1575033882303403669,322,3165105670000,gps_ref,0.0,0.0,0.0,0.0,0.0,0.0,0.0,0.0,0.0,0.0,0.0,0.0,0.0,0.259399414062,0.335693359375,-16.2200927734,0.0,0.0,0.0,0.0,0.0,0.0,0.0,0.0,0.0,0.411523446441,-0.0574218779802,9.3980474472,0.0,0.0,0.0,0.0,0.0,0.0,0.0,0.0,0.0
1575033882477934022,323,3165206028000,gps_ref,0.0,0.0,0.0,0.0,0.0,0.0,0.0,0.0,0.0,0.0,0.0,0.0,0.0,-0.274658203125,0.244140625,-16.4031982422,0.0,0.0,0.0,0.0,0.0,0.0,0.0,0.0,0.0,0.325390636921,0.0191406253725,9.51289081573,0.0,0.0,0.0,0.0,0.0,0.0,0.0,0.0,0.0
1575033882647303397,324,3165296105000,gps_ref,0.0,0.0,0.0,0.0,0.0,0.0,0.0,0.0,0.0,0.0,0.0,0.0,0.0,-0.411987304688,0.274658203125,-16.0369873047,0.0,0.0,0.0,0.0,0.0,0.0,0.0,0.0,0.0,0.325390636921,-0.24882812798,9.32148456573,0.0,0.0,0.0,0.0,0.0,0.0,0.0,0.0,0.0
1575033882840969207,325,3165425607000,gps_ref,0.0,0.0,0.0,0.0,0.0,0.0,0.0,0.0,0.0,0.0,0.0,0.0,0.0,0.411987304688,-0.274658203125,-15.6860351562,0.0,0.0,0.0,0.0,0.0,0.0,0.0,0.0,0.0,0.3828125,-0.287109375,9.4841799736,0.0,0.0,0.0,0.0,0.0,0.0,0.0,0.0,0.0
1575033883002882242,326,3165516293000,gps_ref,0.0,0.0,0.0,0.0,0.0,0.0,0.0,0.0,0.0,0.0,0.0,0.0,0.0,0.503540039062,0.0762939453125,-15.8538818359,0.0,0.0,0.0,0.0,0.0,0.0,0.0,0.0,0.0,0.555078148842,-0.0382812507451,9.37890625,0.0,0.0,0.0,0.0,0.0,0.0,0.0,0.0,0.0
1575033883201273153,327,3165626267000,gps_ref,0.0,0.0,0.0,0.0,0.0,0.0,0.0,0.0,0.0,0.0,0.0,0.0,0.0,0.564575195312,-0.335693359375,-15.5487060547,0.0,0.0,0.0,0.0,0.0,0.0,0.0,0.0,0.0,0.650781273842,-0.13398437202,9.26406288147,0.0,0.0,0.0,0.0,0.0,0.0,0.0,0.0,0.0
1575033883386487126,328,3165735091000,gps_ref,0.0,0.0,0.0,0.0,0.0,0.0,0.0,0.0,0.0,0.0,0.0,0.0,0.0,-0.350952148438,-0.473022460938,-14.9536132812,0.0,0.0,0.0,0.0,0.0,0.0,0.0,0.0,0.0,0.689062535763,0.0765625014901,9.60859394073,0.0,0.0,0.0,0.0,0.0,0.0,0.0,0.0,0.0
1575033883568324573,329,3165835152000,gps_ref,0.0,0.0,0.0,0.0,0.0,0.0,0.0,0.0,0.0,0.0,0.0,0.0,0.0,-0.640869140625,-0.274658203125,-14.5874023438,0.0,0.0,0.0,0.0,0.0,0.0,0.0,0.0,0.0,0.708203136921,-0.0574218779802,9.62773418427,0.0,0.0,0.0,0.0,0.0,0.0,0.0,0.0,0.0
1575033883734350060,330,3165925214000,gps_ref,0.0,0.0,0.0,0.0,0.0,0.0,0.0,0.0,0.0,0.0,0.0,0.0,0.0,-0.778198242188,0.0457763671875,-13.8854980469,0.0,0.0,0.0,0.0,0.0,0.0,0.0,0.0,0.0,0.7177734375,-0.00957031175494,9.51289081573,0.0,0.0,0.0,0.0,0.0,0.0,0.0,0.0,0.0
1575033883923670270,331,3166045570000,gps_ref,0.0,0.0,0.0,0.0,0.0,0.0,0.0,0.0,0.0,0.0,0.0,0.0,0.0,-0.48828125,0.320434570312,-13.0310058594,0.0,0.0,0.0,0.0,0.0,0.0,0.0,0.0,0.0,0.708203136921,-0.11484375596,9.5894536972,0.0,0.0,0.0,0.0,0.0,0.0,0.0,0.0,0.0
1575033884110611763,332,3166135182000,gps_ref,0.0,0.0,0.0,0.0,0.0,0.0,0.0,0.0,0.0,0.0,0.0,0.0,0.0,-0.152587890625,0.869750976562,-12.2222900391,0.0,0.0,0.0,0.0,0.0,0.0,0.0,0.0,0.0,0.602929711342,-0.24882812798,9.50332069397,0.0,0.0,0.0,0.0,0.0,0.0,0.0,0.0,0.0
1575033884296617009,333,3166255219000,gps_ref,0.0,0.0,0.0,0.0,0.0,0.0,0.0,0.0,0.0,0.0,0.0,0.0,0.0,0.595092773438,0.396728515625,-11.3525390625,0.0,0.0,0.0,0.0,0.0,0.0,0.0,0.0,0.0,0.689062535763,0.0574218779802,9.16835975647,0.0,0.0,0.0,0.0,0.0,0.0,0.0,0.0,0.0
1575033884465412868,334,3166355239000,gps_ref,0.0,0.0,0.0,0.0,0.0,0.0,0.0,0.0,0.0,0.0,0.0,0.0,0.0,0.9765625,0.091552734375,-10.5438232422,0.0,0.0,0.0,0.0,0.0,0.0,0.0,0.0,0.0,0.689062535763,-0.0765625014901,9.14921855927,0.0,0.0,0.0,0.0,0.0,0.0,0.0,0.0,0.0
1575033884655908117,335,3166454506000,gps_ref,0.0,0.0,0.0,0.0,0.0,0.0,0.0,0.0,0.0,0.0,0.0,0.0,0.0,0.442504882812,-0.06103515625,-9.56726074219,0.0,0.0,0.0,0.0,0.0,0.0,0.0,0.0,0.0,0.612500011921,0.0478515643626,9.45546865463,0.0,0.0,0.0,0.0,0.0,0.0,0.0,0.0,0.0
1575033884833516589,336,3166555726000,gps_ref,0.0,0.0,0.0,0.0,0.0,0.0,0.0,0.0,0.0,0.0,0.0,0.0,0.0,-0.518798828125,0.625610351562,-9.12475585938,0.0,0.0,0.0,0.0,0.0,0.0,0.0,0.0,0.0,0.64121094346,0.287109375,9.50332069397,0.0,0.0,0.0,0.0,0.0,0.0,0.0,0.0,0.0
1575033885009864462,337,3166664802000,gps_ref,0.0,0.0,0.0,0.0,0.0,0.0,0.0,0.0,0.0,0.0,0.0,0.0,0.0,-0.381469726562,0.9765625,-9.00268554688,0.0,0.0,0.0,0.0,0.0,0.0,0.0,0.0,0.0,0.583789080381,0.15312500298,9.41718769073,0.0,0.0,0.0,0.0,0.0,0.0,0.0,0.0,0.0
1575033885208929171,338,3166755186000,gps_ref,0.0,0.0,0.0,0.0,0.0,0.0,0.0,0.0,0.0,0.0,0.0,0.0,0.0,-0.274658203125,0.625610351562,-8.71276855469,0.0,0.0,0.0,0.0,0.0,0.0,0.0,0.0,0.0,0.593359410763,-0.0574218779802,9.34062480927,0.0,0.0,0.0,0.0,0.0,0.0,0.0,0.0,0.0
1575033885397229074,339,3166875734000,gps_ref,0.0,0.0,0.0,0.0,0.0,0.0,0.0,0.0,0.0,0.0,0.0,0.0,0.0,0.3662109375,0.564575195312,-7.53784179688,0.0,0.0,0.0,0.0,0.0,0.0,0.0,0.0,0.0,0.37324218452,0.00957031175494,9.4267578125,0.0,0.0,0.0,0.0,0.0,0.0,0.0,0.0,0.0
1575033885571071366,340,3166964495000,gps_ref,0.0,0.0,0.0,0.0,0.0,0.0,0.0,0.0,0.0,0.0,0.0,0.0,0.0,0.8544921875,0.167846679688,-6.79016113281,0.0,0.0,0.0,0.0,0.0,0.0,0.0,0.0,0.0,0.3828125,0.095703125,9.34062480927,0.0,0.0,0.0,0.0,0.0,0.0,0.0,0.0,0.0
1575033885751052380,341,3167074249000,gps_ref,0.0,0.0,0.0,0.0,0.0,0.0,0.0,0.0,0.0,0.0,0.0,0.0,0.0,1.00708007812,0.244140625,-6.42395019531,0.0,0.0,0.0,0.0,0.0,0.0,0.0,0.0,0.0,0.440234392881,0.13398437202,9.55117225647,0.0,0.0,0.0,0.0,0.0,0.0,0.0,0.0,0.0
1575033885941369775,342,3167174241000,gps_ref,0.0,0.0,0.0,0.0,0.0,0.0,0.0,0.0,0.0,0.0,0.0,0.0,0.0,0.259399414062,0.54931640625,-5.55419921875,0.0,0.0,0.0,0.0,0.0,0.0,0.0,0.0,0.0,0.287109375,0.21054688096,9.51289081573,0.0,0.0,0.0,0.0,0.0,0.0,0.0,0.0,0.0
1575033886132280899,343,3167284098000,gps_ref,0.0,0.0,0.0,0.0,0.0,0.0,0.0,0.0,0.0,0.0,0.0,0.0,0.0,0.244140625,0.640869140625,-4.7607421875,0.0,0.0,0.0,0.0,0.0,0.0,0.0,0.0,0.0,0.30625000596,0.24882812798,9.32148456573,0.0,0.0,0.0,0.0,0.0,0.0,0.0,0.0,0.0
1575033886325355427,344,3167384095000,gps_ref,0.0,0.0,0.0,0.0,0.0,0.0,0.0,0.0,0.0,0.0,0.0,0.0,0.0,-0.42724609375,0.518798828125,-4.37927246094,0.0,0.0,0.0,0.0,0.0,0.0,0.0,0.0,0.0,0.19140625,0.19140625,9.53203105927,0.0,0.0,0.0,0.0,0.0,0.0,0.0,0.0,0.0
1575033886516590642,345,3167494353000,gps_ref,0.0,0.0,0.0,0.0,0.0,0.0,0.0,0.0,0.0,0.0,0.0,0.0,0.0,-0.18310546875,0.274658203125,-4.13513183594,0.0,0.0,0.0,0.0,0.0,0.0,0.0,0.0,0.0,0.0191406253725,0.26796874404,9.091796875,0.0,0.0,0.0,0.0,0.0,0.0,0.0,0.0,0.0
1575033886699636247,346,3167594262000,gps_ref,0.0,0.0,0.0,0.0,0.0,0.0,0.0,0.0,0.0,0.0,0.0,0.0,0.0,-0.091552734375,-1.08337402344,-3.99780273438,0.0,0.0,0.0,0.0,0.0,0.0,0.0,0.0,0.0,0.19140625,0.19140625,9.34062480927,0.0,0.0,0.0,0.0,0.0,0.0,0.0,0.0,0.0
1575033886908462455,347,3167714240000,gps_ref,0.0,0.0,0.0,0.0,0.0,0.0,0.0,0.0,0.0,0.0,0.0,0.0,0.0,-0.54931640625,-0.91552734375,-4.10461425781,0.0,0.0,0.0,0.0,0.0,0.0,0.0,0.0,0.0,0.172265633941,0.26796874404,9.5703125,0.0,0.0,0.0,0.0,0.0,0.0,0.0,0.0,0.0
1575033887065539581,348,3167804301000,gps_ref,0.0,0.0,0.0,0.0,0.0,0.0,0.0,0.0,0.0,0.0,0.0,0.0,0.0,-0.259399414062,-0.18310546875,-4.08935546875,0.0,0.0,0.0,0.0,0.0,0.0,0.0,0.0,0.0,0.17226562649,0.27753905952,9.36933612823,0.0,0.0,0.0,0.0,0.0,0.0,0.0,0.0,0.0
1575033887279446883,349,3167914269000,gps_ref,0.0,0.0,0.0,0.0,0.0,0.0,0.0,0.0,0.0,0.0,0.0,0.0,0.0,0.3662109375,0.30517578125,-3.70788574219,0.0,0.0,0.0,0.0,0.0,0.0,0.0,0.0,0.0,0.172265633941,0.095703125,9.474609375,0.0,0.0,0.0,0.0,0.0,0.0,0.0,0.0,0.0
1575033887463985743,350,3168013684000,gps_ref,0.0,0.0,0.0,0.0,0.0,0.0,0.0,0.0,0.0,0.0,0.0,0.0,0.0,1.48010253906,0.18310546875,-3.49426269531,0.0,0.0,0.0,0.0,0.0,0.0,0.0,0.0,0.0,0.267968758941,0.19140625,9.52246141434,0.0,0.0,0.0,0.0,0.0,0.0,0.0,0.0,0.0
1575033887654897135,351,3168113227000,gps_ref,0.0,0.0,0.0,0.0,0.0,0.0,0.0,0.0,0.0,0.0,0.0,0.0,0.0,1.708984375,-0.18310546875,-2.83813476562,0.0,0.0,0.0,0.0,0.0,0.0,0.0,0.0,0.0,0.325390636921,0.30625000596,9.3023443222,0.0,0.0,0.0,0.0,0.0,0.0,0.0,0.0,0.0
1575033887849551218,352,3168223690000,gps_ref,0.0,0.0,0.0,0.0,0.0,0.0,0.0,0.0,0.0,0.0,0.0,0.0,0.0,1.73950195312,-0.274658203125,-2.33459472656,0.0,0.0,0.0,0.0,0.0,0.0,0.0,0.0,0.0,0.34453125298,0.421093761921,9.35976552963,0.0,0.0,0.0,0.0,0.0,0.0,0.0,0.0,0.0
1575033888016614202,353,3168323207000,gps_ref,0.0,0.0,0.0,0.0,0.0,0.0,0.0,0.0,0.0,0.0,0.0,0.0,0.0,0.350952148438,0.320434570312,-1.8310546875,0.0,0.0,0.0,0.0,0.0,0.0,0.0,0.0,0.0,0.344531267881,0.631640613079,9.474609375,0.0,0.0,0.0,0.0,0.0,0.0,0.0,0.0,0.0
1575033888205554653,354,3168423333000,gps_ref,0.0,0.0,0.0,0.0,0.0,0.0,0.0,0.0,0.0,0.0,0.0,0.0,0.0,-0.167846679688,0.503540039062,-1.52587890625,0.0,0.0,0.0,0.0,0.0,0.0,0.0,0.0,0.0,0.478515625,0.516796886921,9.41718769073,0.0,0.0,0.0,0.0,0.0,0.0,0.0,0.0,0.0
1575033888385991293,355,3168523194000,gps_ref,0.0,0.0,0.0,0.0,0.0,0.0,0.0,0.0,0.0,0.0,0.0,0.0,0.0,-1.29699707031,0.762939453125,-1.35803222656,0.0,0.0,0.0,0.0,0.0,0.0,0.0,0.0,0.0,0.440234392881,0.478515625,9.62773418427,0.0,0.0,0.0,0.0,0.0,0.0,0.0,0.0,0.0
1575033888577921685,356,3168633082000,gps_ref,0.0,0.0,0.0,0.0,0.0,0.0,0.0,0.0,0.0,0.0,0.0,0.0,0.0,-0.289916992188,0.930786132812,-1.28173828125,0.0,0.0,0.0,0.0,0.0,0.0,0.0,0.0,0.0,0.344531267881,0.19140625,9.62773418427,0.0,0.0,0.0,0.0,0.0,0.0,0.0,0.0,0.0
1575033888775541480,357,3168713182000,gps_ref,0.0,0.0,0.0,0.0,0.0,0.0,0.0,0.0,0.0,0.0,0.0,0.0,0.0,-0.320434570312,1.54113769531,-1.0986328125,0.0,0.0,0.0,0.0,0.0,0.0,0.0,0.0,0.0,0.344531267881,0.24882812798,9.4937505722,0.0,0.0,0.0,0.0,0.0,0.0,0.0,0.0,0.0
1575033888977594050,358,3168823285000,gps_ref,0.0,0.0,0.0,0.0,0.0,0.0,0.0,0.0,0.0,0.0,0.0,0.0,0.0,0.42724609375,0.579833984375,-1.17492675781,0.0,0.0,0.0,0.0,0.0,0.0,0.0,0.0,0.0,0.421093761921,0.421093761921,9.1109380722,0.0,0.0,0.0,0.0,0.0,0.0,0.0,0.0,0.0
1575033889159241184,359,3168933541000,gps_ref,0.0,0.0,0.0,0.0,0.0,0.0,0.0,0.0,0.0,0.0,0.0,0.0,0.0,0.518798828125,-0.244140625,-1.25122070312,0.0,0.0,0.0,0.0,0.0,0.0,0.0,0.0,0.0,0.287109375,0.21054688096,9.3023443222,0.0,0.0,0.0,0.0,0.0,0.0,0.0,0.0,0.0
1575033889345378479,360,3169033082000,gps_ref,0.0,0.0,0.0,0.0,0.0,0.0,0.0,0.0,0.0,0.0,0.0,0.0,0.0,1.02233886719,0.1220703125,-1.3427734375,0.0,0.0,0.0,0.0,0.0,0.0,0.0,0.0,0.0,0.36367186904,0.421093761921,9.72343730927,0.0,0.0,0.0,0.0,0.0,0.0,0.0,0.0,0.0
1575033889521806234,361,3169133082000,gps_ref,0.0,0.0,0.0,0.0,0.0,0.0,0.0,0.0,0.0,0.0,0.0,0.0,0.0,1.05285644531,0.625610351562,-1.35803222656,0.0,0.0,0.0,0.0,0.0,0.0,0.0,0.0,0.0,-0.0191406253725,0.49765625596,9.45546913147,0.0,0.0,0.0,0.0,0.0,0.0,0.0,0.0,0.0
1575033889718473337,362,3169243685000,gps_ref,0.0,0.0,0.0,0.0,0.0,0.0,0.0,0.0,0.0,0.0,0.0,0.0,0.0,0.442504882812,0.289916992188,-1.26647949219,0.0,0.0,0.0,0.0,0.0,0.0,0.0,0.0,0.0,0.11484375596,0.593359410763,9.3980474472,0.0,0.0,0.0,0.0,0.0,0.0,0.0,0.0,0.0
1575033889902605906,363,3169342734000,gps_ref,0.0,0.0,0.0,0.0,0.0,0.0,0.0,0.0,0.0,0.0,0.0,0.0,0.0,0.244140625,0.0152587890625,-1.0986328125,0.0,0.0,0.0,0.0,0.0,0.0,0.0,0.0,0.0,0.11484375596,0.593359410763,9.26406288147,0.0,0.0,0.0,0.0,0.0,0.0,0.0,0.0,0.0
1575033890081242249,364,3169452260000,gps_ref,0.0,0.0,0.0,0.0,0.0,0.0,0.0,0.0,0.0,0.0,0.0,0.0,0.0,-0.106811523438,-0.274658203125,-1.35803222656,0.0,0.0,0.0,0.0,0.0,0.0,0.0,0.0,0.0,0.172265633941,0.57421875,9.34062480927,0.0,0.0,0.0,0.0,0.0,0.0,0.0,0.0,0.0
1575033890241544216,365,3169552377000,gps_ref,0.0,0.0,0.0,0.0,0.0,0.0,0.0,0.0,0.0,0.0,0.0,0.0,0.0,-0.656127929688,-0.244140625,-1.14440917969,0.0,0.0,0.0,0.0,0.0,0.0,0.0,0.0,0.0,0.26796874404,0.344531267881,9.76171875,0.0,0.0,0.0,0.0,0.0,0.0,0.0,0.0,0.0
1575033890420031135,366,3169662031000,gps_ref,0.0,0.0,0.0,0.0,0.0,0.0,0.0,0.0,0.0,0.0,0.0,0.0,0.0,0.1220703125,-0.0457763671875,-1.11389160156,0.0,0.0,0.0,0.0,0.0,0.0,0.0,0.0,0.0,0.19140625,0.421093761921,9.474609375,0.0,0.0,0.0,0.0,0.0,0.0,0.0,0.0,0.0
1575033890588252099,367,3169762032000,gps_ref,0.0,0.0,0.0,0.0,0.0,0.0,0.0,0.0,0.0,0.0,0.0,0.0,0.0,-0.137329101562,-0.320434570312,-1.32751464844,0.0,0.0,0.0,0.0,0.0,0.0,0.0,0.0,0.0,0.229687511921,0.440234392881,9.60859394073,0.0,0.0,0.0,0.0,0.0,0.0,0.0,0.0,0.0
1575033890784478209,368,3169882109000,gps_ref,0.0,0.0,0.0,0.0,0.0,0.0,0.0,0.0,0.0,0.0,0.0,0.0,0.0,0.564575195312,-0.335693359375,-1.19018554688,0.0,0.0,0.0,0.0,0.0,0.0,0.0,0.0,0.0,0.15312500298,0.325390636921,9.13007831573,0.0,0.0,0.0,0.0,0.0,0.0,0.0,0.0,0.0
1575033890949243694,369,3169982241000,gps_ref,0.0,0.0,0.0,0.0,0.0,0.0,0.0,0.0,0.0,0.0,0.0,0.0,0.0,-0.0152587890625,0.198364257812,-1.11389160156,0.0,0.0,0.0,0.0,0.0,0.0,0.0,0.0,0.0,0.19140625,0.516796886921,9.283203125,0.0,0.0,0.0,0.0,0.0,0.0,0.0,0.0,0.0
1575033891124509123,370,3170082298000,gps_ref,0.0,0.0,0.0,0.0,0.0,0.0,0.0,0.0,0.0,0.0,0.0,0.0,0.0,0.0762939453125,0.48828125,-1.32751464844,0.0,0.0,0.0,0.0,0.0,0.0,0.0,0.0,0.0,0.172265633941,0.40195313096,9.32148456573,0.0,0.0,0.0,0.0,0.0,0.0,0.0,0.0,0.0
1575033891296584722,371,3170182173000,gps_ref,0.0,0.0,0.0,0.0,0.0,0.0,0.0,0.0,0.0,0.0,0.0,0.0,0.0,-0.30517578125,0.350952148438,-1.14440917969,0.0,0.0,0.0,0.0,0.0,0.0,0.0,0.0,0.0,0.21054688096,0.325390636921,9.62773418427,0.0,0.0,0.0,0.0,0.0,0.0,0.0,0.0,0.0
1575033891458523565,372,3170282457000,gps_ref,0.0,0.0,0.0,0.0,0.0,0.0,0.0,0.0,0.0,0.0,0.0,0.0,0.0,-0.244140625,0.1220703125,-1.220703125,0.0,0.0,0.0,0.0,0.0,0.0,0.0,0.0,0.0,0.25839844346,0.478515625,9.3884768486,0.0,0.0,0.0,0.0,0.0,0.0,0.0,0.0,0.0
1575033891641226240,373,3170402206000,gps_ref,0.0,0.0,0.0,0.0,0.0,0.0,0.0,0.0,0.0,0.0,0.0,0.0,0.0,0.289916992188,-0.54931640625,-1.23596191406,0.0,0.0,0.0,0.0,0.0,0.0,0.0,0.0,0.0,0.21054688096,0.26796874404,9.55117225647,0.0,0.0,0.0,0.0,0.0,0.0,0.0,0.0,0.0
1575033891834649474,374,3170512237000,gps_ref,0.0,0.0,0.0,0.0,0.0,0.0,0.0,0.0,0.0,0.0,0.0,0.0,0.0,0.900268554688,0.0762939453125,-1.17492675781,0.0,0.0,0.0,0.0,0.0,0.0,0.0,0.0,0.0,0.421093761921,0.421093761921,9.51289081573,0.0,0.0,0.0,0.0,0.0,0.0,0.0,0.0,0.0
1575033891992167943,375,3170612028000,gps_ref,0.0,0.0,0.0,0.0,0.0,0.0,0.0,0.0,0.0,0.0,0.0,0.0,0.0,0.18310546875,0.289916992188,-1.29699707031,0.0,0.0,0.0,0.0,0.0,0.0,0.0,0.0,0.0,0.26796874404,0.612500011921,9.55117225647,0.0,0.0,0.0,0.0,0.0,0.0,0.0,0.0,0.0
1575033892143960633,376,3170712078000,gps_ref,0.0,0.0,0.0,0.0,0.0,0.0,0.0,0.0,0.0,0.0,0.0,0.0,0.0,0.335693359375,0.320434570312,-1.19018554688,0.0,0.0,0.0,0.0,0.0,0.0,0.0,0.0,0.0,0.27753906697,0.49765625596,9.56074237823,0.0,0.0,0.0,0.0,0.0,0.0,0.0,0.0,0.0
1575033892326849075,377,3170811028000,gps_ref,0.0,0.0,0.0,0.0,0.0,0.0,0.0,0.0,0.0,0.0,0.0,0.0,0.0,-0.289916992188,0.625610351562,-1.220703125,0.0,0.0,0.0,0.0,0.0,0.0,0.0,0.0,0.0,0.325390636921,0.3828125,9.4937505722,0.0,0.0,0.0,0.0,0.0,0.0,0.0,0.0,0.0
1575033892503127435,378,3170921735000,gps_ref,0.0,0.0,0.0,0.0,0.0,0.0,0.0,0.0,0.0,0.0,0.0,0.0,0.0,-0.3662109375,0.320434570312,-1.25122070312,0.0,0.0,0.0,0.0,0.0,0.0,0.0,0.0,0.0,0.18183594197,0.392382830381,9.22578144073,0.0,0.0,0.0,0.0,0.0,0.0,0.0,0.0,0.0
1575033892674625645,379,3171021186000,gps_ref,0.0,0.0,0.0,0.0,0.0,0.0,0.0,0.0,0.0,0.0,0.0,0.0,0.0,-0.0762939453125,-0.442504882812,-1.11389160156,0.0,0.0,0.0,0.0,0.0,0.0,0.0,0.0,0.0,0.24882812798,0.36367186904,9.474609375,0.0,0.0,0.0,0.0,0.0,0.0,0.0,0.0,0.0
1575033892844477689,380,3171121283000,gps_ref,0.0,0.0,0.0,0.0,0.0,0.0,0.0,0.0,0.0,0.0,0.0,0.0,0.0,0.625610351562,0.595092773438,-1.0986328125,0.0,0.0,0.0,0.0,0.0,0.0,0.0,0.0,0.0,0.15312500298,0.421093761921,9.64687538147,0.0,0.0,0.0,0.0,0.0,0.0,0.0,0.0,0.0
1575033893014456887,381,3171221114000,gps_ref,0.0,0.0,0.0,0.0,0.0,0.0,0.0,0.0,0.0,0.0,0.0,0.0,0.0,0.381469726562,0.350952148438,-1.37329101562,0.0,0.0,0.0,0.0,0.0,0.0,0.0,0.0,0.0,0.287109375,0.478515625,9.41718769073,0.0,0.0,0.0,0.0,0.0,0.0,0.0,0.0,0.0
1575033893202730257,382,3171331028000,gps_ref,0.0,0.0,0.0,0.0,0.0,0.0,0.0,0.0,0.0,0.0,0.0,0.0,0.0,-0.42724609375,0.30517578125,-1.03759765625,0.0,0.0,0.0,0.0,0.0,0.0,0.0,0.0,0.0,0.13398437202,0.535937488079,9.74257850647,0.0,0.0,0.0,0.0,0.0,0.0,0.0,0.0,0.0
1575033893380474753,383,3171431028000,gps_ref,0.0,0.0,0.0,0.0,0.0,0.0,0.0,0.0,0.0,0.0,0.0,0.0,0.0,0.411987304688,-0.167846679688,-1.08337402344,0.0,0.0,0.0,0.0,0.0,0.0,0.0,0.0,0.0,0.172265633941,0.21054688096,9.45546913147,0.0,0.0,0.0,0.0,0.0,0.0,0.0,0.0,0.0
1575033893554491819,384,3171531028000,gps_ref,0.0,0.0,0.0,0.0,0.0,0.0,0.0,0.0,0.0,0.0,0.0,0.0,0.0,0.579833984375,-0.0152587890625,-1.28173828125,0.0,0.0,0.0,0.0,0.0,0.0,0.0,0.0,0.0,0.172265633941,0.440234392881,9.2066411972,0.0,0.0,0.0,0.0,0.0,0.0,0.0,0.0,0.0
1575033893746283456,385,3171630431000,gps_ref,0.0,0.0,0.0,0.0,0.0,0.0,0.0,0.0,0.0,0.0,0.0,0.0,0.0,-0.259399414062,-0.091552734375,-1.37329101562,0.0,0.0,0.0,0.0,0.0,0.0,0.0,0.0,0.0,0.200976572931,0.373242199421,9.32148456573,0.0,0.0,0.0,0.0,0.0,0.0,0.0,0.0,0.0
1575033893933513433,386,3171740645000,gps_ref,0.0,0.0,0.0,0.0,0.0,0.0,0.0,0.0,0.0,0.0,0.0,0.0,0.0,-0.442504882812,-0.213623046875,-0.991821289062,0.0,0.0,0.0,0.0,0.0,0.0,0.0,0.0,0.0,0.172265633941,0.36367186904,9.5703125,0.0,0.0,0.0,0.0,0.0,0.0,0.0,0.0,0.0
1575033894129574375,387,3171851360000,gps_ref,0.0,0.0,0.0,0.0,0.0,0.0,0.0,0.0,0.0,0.0,0.0,0.0,0.0,-0.518798828125,0.656127929688,-1.08337402344,0.0,0.0,0.0,0.0,0.0,0.0,0.0,0.0,0.0,0.15312500298,0.555078148842,9.55117225647,0.0,0.0,0.0,0.0,0.0,0.0,0.0,0.0,0.0
1575033894327837399,388,3171951013000,gps_ref,0.0,0.0,0.0,0.0,0.0,0.0,0.0,0.0,0.0,0.0,0.0,0.0,0.0,-0.244140625,1.26647949219,-1.25122070312,0.0,0.0,0.0,0.0,0.0,0.0,0.0,0.0,0.0,0.133984375745,0.449804708362,9.59902381897,0.0,0.0,0.0,0.0,0.0,0.0,0.0,0.0,0.0
1575033894522597812,389,3172050378000,gps_ref,0.0,0.0,0.0,0.0,0.0,0.0,0.0,0.0,0.0,0.0,0.0,0.0,0.0,-0.274658203125,1.38854980469,-1.17492675781,0.0,0.0,0.0,0.0,0.0,0.0,0.0,0.0,0.0,0.0191406253725,0.26796874404,9.283203125,0.0,0.0,0.0,0.0,0.0,0.0,0.0,0.0,0.0
1575033894721943814,390,3172170143000,gps_ref,0.0,0.0,0.0,0.0,0.0,0.0,0.0,0.0,0.0,0.0,0.0,0.0,0.0,0.762939453125,-0.54931640625,-1.0986328125,0.0,0.0,0.0,0.0,0.0,0.0,0.0,0.0,0.0,0.11484375596,0.421093761921,9.091796875,0.0,0.0,0.0,0.0,0.0,0.0,0.0,0.0,0.0
1575033894911450524,391,3172260028000,gps_ref,0.0,0.0,0.0,0.0,0.0,0.0,0.0,0.0,0.0,0.0,0.0,0.0,0.0,0.06103515625,-0.30517578125,-1.26647949219,0.0,0.0,0.0,0.0,0.0,0.0,0.0,0.0,0.0,0.11484375596,0.49765625596,9.3023443222,0.0,0.0,0.0,0.0,0.0,0.0,0.0,0.0,0.0
1575033895103306620,392,3172371279000,gps_ref,0.0,0.0,0.0,0.0,0.0,0.0,0.0,0.0,0.0,0.0,0.0,0.0,0.0,0.091552734375,-0.0762939453125,-1.15966796875,0.0,0.0,0.0,0.0,0.0,0.0,0.0,0.0,0.0,0.1435546875,0.411523446441,9.76171875,0.0,0.0,0.0,0.0,0.0,0.0,0.0,0.0,0.0
1575033895296527950,393,3172470312000,gps_ref,0.0,0.0,0.0,0.0,0.0,0.0,0.0,0.0,0.0,0.0,0.0,0.0,0.0,-0.167846679688,0.823974609375,-1.15966796875,0.0,0.0,0.0,0.0,0.0,0.0,0.0,0.0,0.0,0.229687511921,0.325390636921,9.5894536972,0.0,0.0,0.0,0.0,0.0,0.0,0.0,0.0,0.0
1575033895474992175,394,3172580028000,gps_ref,0.0,0.0,0.0,0.0,0.0,0.0,0.0,0.0,0.0,0.0,0.0,0.0,0.0,0.244140625,0.411987304688,-1.41906738281,0.0,0.0,0.0,0.0,0.0,0.0,0.0,0.0,0.0,0.287109375,0.40195313096,9.35976600647,0.0,0.0,0.0,0.0,0.0,0.0,0.0,0.0,0.0
1575033895646969722,395,3172670274000,gps_ref,0.0,0.0,0.0,0.0,0.0,0.0,0.0,0.0,0.0,0.0,0.0,0.0,0.0,-0.167846679688,0.213623046875,-1.43432617188,0.0,0.0,0.0,0.0,0.0,0.0,0.0,0.0,0.0,0.287109375,0.440234392881,9.32148456573,0.0,0.0,0.0,0.0,0.0,0.0,0.0,0.0,0.0
1575033895849846329,396,3172780028000,gps_ref,0.0,0.0,0.0,0.0,0.0,0.0,0.0,0.0,0.0,0.0,0.0,0.0,0.0,-0.167846679688,0.411987304688,-1.29699707031,0.0,0.0,0.0,0.0,0.0,0.0,0.0,0.0,0.0,0.15312500298,0.30625000596,9.70429706573,0.0,0.0,0.0,0.0,0.0,0.0,0.0,0.0,0.0
1575033896042067057,397,3172880141000,gps_ref,0.0,0.0,0.0,0.0,0.0,0.0,0.0,0.0,0.0,0.0,0.0,0.0,0.0,-0.396728515625,-0.0152587890625,-1.3427734375,0.0,0.0,0.0,0.0,0.0,0.0,0.0,0.0,0.0,0.26796874404,0.49765625596,9.3023443222,0.0,0.0,0.0,0.0,0.0,0.0,0.0,0.0,0.0
1575033896221489510,398,3172990268000,gps_ref,0.0,0.0,0.0,0.0,0.0,0.0,0.0,0.0,0.0,0.0,0.0,0.0,0.0,0.457763671875,-0.473022460938,-1.49536132812,0.0,0.0,0.0,0.0,0.0,0.0,0.0,0.0,0.0,0.11484375596,0.36367186904,9.24492168427,0.0,0.0,0.0,0.0,0.0,0.0,0.0,0.0,0.0
1575033896404978798,399,3173090120000,gps_ref,0.0,0.0,0.0,0.0,0.0,0.0,0.0,0.0,0.0,0.0,0.0,0.0,0.0,0.534057617188,-0.335693359375,-1.66320800781,0.0,0.0,0.0,0.0,0.0,0.0,0.0,0.0,0.0,0.0574218751863,0.267968758941,9.8765630722,0.0,0.0,0.0,0.0,0.0,0.0,0.0,0.0,0.0
1575033896600514455,400,3173209046000,gps_ref,0.0,0.0,0.0,0.0,0.0,0.0,0.0,0.0,0.0,0.0,0.0,0.0,0.0,0.1220703125,0.640869140625,-1.78527832031,0.0,0.0,0.0,0.0,0.0,0.0,0.0,0.0,0.0,0.287109375,0.57421875,9.3980474472,0.0,0.0,0.0,0.0,0.0,0.0,0.0,0.0,0.0
1575033896787513622,401,3173309047000,gps_ref,0.0,0.0,0.0,0.0,0.0,0.0,0.0,0.0,0.0,0.0,0.0,0.0,0.0,-0.030517578125,0.869750976562,-2.01416015625,0.0,0.0,0.0,0.0,0.0,0.0,0.0,0.0,0.0,0.0765625014901,0.459375023842,9.45546913147,0.0,0.0,0.0,0.0,0.0,0.0,0.0,0.0,0.0
1575033896961930254,402,3173409048000,gps_ref,0.0,0.0,0.0,0.0,0.0,0.0,0.0,0.0,0.0,0.0,0.0,0.0,0.0,-0.228881835938,0.656127929688,-1.89208984375,0.0,0.0,0.0,0.0,0.0,0.0,0.0,0.0,0.0,0.13398437947,0.277539074421,9.3310546875,0.0,0.0,0.0,0.0,0.0,0.0,0.0,0.0,0.0
1575033897149357076,403,3173509518000,gps_ref,0.0,0.0,0.0,0.0,0.0,0.0,0.0,0.0,0.0,0.0,0.0,0.0,0.0,-0.579833984375,-0.640869140625,-1.92260742188,0.0,0.0,0.0,0.0,0.0,0.0,0.0,0.0,0.0,0.12441406399,0.421093761921,9.31191396713,0.0,0.0,0.0,0.0,0.0,0.0,0.0,0.0,0.0
1575033897330216124,404,3173619302000,gps_ref,0.0,0.0,0.0,0.0,0.0,0.0,0.0,0.0,0.0,0.0,0.0,0.0,0.0,-0.534057617188,-1.69372558594,-2.47192382812,0.0,0.0,0.0,0.0,0.0,0.0,0.0,0.0,0.0,0.631640613079,0.411523461342,9.283203125,0.0,0.0,0.0,0.0,0.0,0.0,0.0,0.0,0.0
1575033897509582026,405,3173720166000,gps_ref,0.0,0.0,0.0,0.0,0.0,0.0,0.0,0.0,0.0,0.0,0.0,0.0,0.0,-0.0152587890625,3.61633300781,-2.47192382812,0.0,0.0,0.0,0.0,0.0,0.0,0.0,0.0,0.0,0.172265633941,0.507226586342,9.31191396713,0.0,0.0,0.0,0.0,0.0,0.0,0.0,0.0,0.0
1575033897701190315,406,3173828892000,gps_ref,0.0,0.0,0.0,0.0,0.0,0.0,0.0,0.0,0.0,0.0,0.0,0.0,0.0,4.05883789062,-1.49536132812,-3.03649902344,0.0,0.0,0.0,0.0,0.0,0.0,0.0,0.0,0.0,-0.287109389901,-0.200976550579,8.421875,0.0,0.0,0.0,0.0,0.0,0.0,0.0,0.0,0.0
1575033897867255632,407,3173919073000,gps_ref,0.0,0.0,0.0,0.0,0.0,0.0,0.0,0.0,0.0,0.0,0.0,0.0,0.0,-4.37927246094,-4.83703613281,-2.86865234375,0.0,0.0,0.0,0.0,0.0,0.0,0.0,0.0,0.0,0.172265633941,0.976171910763,9.76171875,0.0,0.0,0.0,0.0,0.0,0.0,0.0,0.0,0.0
1575033898065261012,408,3174039812000,gps_ref,0.0,0.0,0.0,0.0,0.0,0.0,0.0,0.0,0.0,0.0,0.0,0.0,0.0,1.38854980469,-4.83703613281,-2.9296875,0.0,0.0,0.0,0.0,0.0,0.0,0.0,0.0,0.0,0.095703125,-0.0478515625,9.36933612823,0.0,0.0,0.0,0.0,0.0,0.0,0.0,0.0,0.0
1575033898255904257,409,3174139242000,gps_ref,0.0,0.0,0.0,0.0,0.0,0.0,0.0,0.0,0.0,0.0,0.0,0.0,0.0,-2.67028808594,-1.48010253906,-3.12805175781,0.0,0.0,0.0,0.0,0.0,0.0,0.0,0.0,0.0,0.344531267881,1.07187497616,9.5894536972,0.0,0.0,0.0,0.0,0.0,0.0,0.0,0.0,0.0
1575033898428977994,410,3174239038000,gps_ref,0.0,0.0,0.0,0.0,0.0,0.0,0.0,0.0,0.0,0.0,0.0,0.0,0.0,-0.48828125,1.35803222656,-3.90625,0.0,0.0,0.0,0.0,0.0,0.0,0.0,0.0,0.0,0.172265633941,0.0191406253725,9.5703125,0.0,0.0,0.0,0.0,0.0,0.0,0.0,0.0,0.0
1575033898606469317,411,3174358791000,gps_ref,0.0,0.0,0.0,0.0,0.0,0.0,0.0,0.0,0.0,0.0,0.0,0.0,0.0,-0.839233398438,1.55639648438,-3.11279296875,0.0,0.0,0.0,0.0,0.0,0.0,0.0,0.0,0.0,0.18183594197,0.239257819951,9.23535203934,0.0,0.0,0.0,0.0,0.0,0.0,0.0,0.0,0.0
1575033898792639629,412,3174458029000,gps_ref,0.0,0.0,0.0,0.0,0.0,0.0,0.0,0.0,0.0,0.0,0.0,0.0,0.0,-0.213623046875,0.335693359375,-3.47900390625,0.0,0.0,0.0,0.0,0.0,0.0,0.0,0.0,0.0,0.0382812507451,0.30625000596,9.60859394073,0.0,0.0,0.0,0.0,0.0,0.0,0.0,0.0,0.0
1575033898971219884,413,3174548311000,gps_ref,0.0,0.0,0.0,0.0,0.0,0.0,0.0,0.0,0.0,0.0,0.0,0.0,0.0,-0.0762939453125,-0.320434570312,-4.16564941406,0.0,0.0,0.0,0.0,0.0,0.0,0.0,0.0,0.0,0.0765625014901,0.229687511921,9.74257850647,0.0,0.0,0.0,0.0,0.0,0.0,0.0,0.0,0.0
1575033899157212372,414,3174658029000,gps_ref,0.0,0.0,0.0,0.0,0.0,0.0,0.0,0.0,0.0,0.0,0.0,0.0,0.0,1.31225585938,0.0,-4.7607421875,0.0,0.0,0.0,0.0,0.0,0.0,0.0,0.0,0.0,0.24882812798,0.15312500298,9.3023443222,0.0,0.0,0.0,0.0,0.0,0.0,0.0,0.0,0.0
1575033899332240679,415,3174758028000,gps_ref,0.0,0.0,0.0,0.0,0.0,0.0,0.0,0.0,0.0,0.0,0.0,0.0,0.0,-3.35693359375,-1.96838378906,-5.92041015625,0.0,0.0,0.0,0.0,0.0,0.0,0.0,0.0,0.0,0.325390636921,0.95703125,7.15859365463,0.0,0.0,0.0,0.0,0.0,0.0,0.0,0.0,0.0
1575033899517122487,416,3174868320000,gps_ref,0.0,0.0,0.0,0.0,0.0,0.0,0.0,0.0,0.0,0.0,0.0,0.0,0.0,7.85827636719,-6.04248046875,-4.48608398438,0.0,0.0,0.0,0.0,0.0,0.0,0.0,0.0,0.0,0.24882812798,-1.26328122616,10.8335943222,0.0,0.0,0.0,0.0,0.0,0.0,0.0,0.0,0.0
1575033899708415326,417,3174968025000,gps_ref,0.0,0.0,0.0,0.0,0.0,0.0,0.0,0.0,0.0,0.0,0.0,0.0,0.0,3.23486328125,3.15856933594,-6.63757324219,0.0,0.0,0.0,0.0,0.0,0.0,0.0,0.0,0.0,0.0957031268626,0.84218749404,11.5035157204,0.0,0.0,0.0,0.0,0.0,0.0,0.0,0.0,0.0
1575033899894737425,418,3175088110000,gps_ref,0.0,0.0,0.0,0.0,0.0,0.0,0.0,0.0,0.0,0.0,0.0,0.0,0.0,4.150390625,5.34057617188,-7.30895996094,0.0,0.0,0.0,0.0,0.0,0.0,0.0,0.0,0.0,0.229687511921,-0.36367186904,9.3023443222,0.0,0.0,0.0,0.0,0.0,0.0,0.0,0.0,0.0
1575033900086031248,419,3175198454000,gps_ref,0.0,0.0,0.0,0.0,0.0,0.0,0.0,0.0,0.0,0.0,0.0,0.0,0.0,-1.48010253906,1.63269042969,-5.38635253906,0.0,0.0,0.0,0.0,0.0,0.0,0.0,0.0,0.0,0.095703125,0.535937488079,8.11562538147,0.0,0.0,0.0,0.0,0.0,0.0,0.0,0.0,0.0
1575033900261609216,420,3175298276000,gps_ref,0.0,0.0,0.0,0.0,0.0,0.0,0.0,0.0,0.0,0.0,0.0,0.0,0.0,-2.05993652344,-0.396728515625,-7.82775878906,0.0,0.0,0.0,0.0,0.0,0.0,0.0,0.0,0.0,-0.0765625014901,0.650781273842,8.55585956573,0.0,0.0,0.0,0.0,0.0,0.0,0.0,0.0,0.0
1575033900441634058,421,3175398228000,gps_ref,0.0,0.0,0.0,0.0,0.0,0.0,0.0,0.0,0.0,0.0,0.0,0.0,0.0,-2.12097167969,-1.12915039062,-9.1552734375,0.0,0.0,0.0,0.0,0.0,0.0,0.0,0.0,0.0,-0.0191406253725,-0.325390636921,9.35976600647,0.0,0.0,0.0,0.0,0.0,0.0,0.0,0.0,0.0
1575033900614669133,422,3175498001000,gps_ref,0.0,0.0,0.0,0.0,0.0,0.0,0.0,0.0,0.0,0.0,0.0,0.0,0.0,-0.3662109375,-0.411987304688,-8.75854492188,0.0,0.0,0.0,0.0,0.0,0.0,0.0,0.0,0.0,0.16269531101,-0.34453125298,9.6277346611,0.0,0.0,0.0,0.0,0.0,0.0,0.0,0.0,0.0
1575033900788212414,423,3175608028000,gps_ref,0.0,0.0,0.0,0.0,0.0,0.0,0.0,0.0,0.0,0.0,0.0,0.0,0.0,0.534057617188,0.48828125,-9.24682617188,0.0,0.0,0.0,0.0,0.0,0.0,0.0,0.0,0.0,0.0669921897352,0.18183594197,9.89570331573,0.0,0.0,0.0,0.0,0.0,0.0,0.0,0.0,0.0
1575033900976918928,424,3175697197000,gps_ref,0.0,0.0,0.0,0.0,0.0,0.0,0.0,0.0,0.0,0.0,0.0,0.0,0.0,0.869750976562,0.289916992188,-10.3912353516,0.0,0.0,0.0,0.0,0.0,0.0,0.0,0.0,0.0,0.0574218779802,0.229687511921,9.474609375,0.0,0.0,0.0,0.0,0.0,0.0,0.0,0.0,0.0
1575033901162630400,425,3175797168000,gps_ref,0.0,0.0,0.0,0.0,0.0,0.0,0.0,0.0,0.0,0.0,0.0,0.0,0.0,0.167846679688,0.18310546875,-10.8795166016,0.0,0.0,0.0,0.0,0.0,0.0,0.0,0.0,0.0,0.13398437202,-0.095703125,9.3023443222,0.0,0.0,0.0,0.0,0.0,0.0,0.0,0.0,0.0
1575033901362494828,426,3175917452000,gps_ref,0.0,0.0,0.0,0.0,0.0,0.0,0.0,0.0,0.0,0.0,0.0,0.0,0.0,0.198364257812,0.198364257812,-11.0626220703,0.0,0.0,0.0,0.0,0.0,0.0,0.0,0.0,0.0,0.0765625014901,0.0191406253725,9.26406288147,0.0,0.0,0.0,0.0,0.0,0.0,0.0,0.0,0.0
1575033901536890368,427,3176007028000,gps_ref,0.0,0.0,0.0,0.0,0.0,0.0,0.0,0.0,0.0,0.0,0.0,0.0,0.0,0.3662109375,0.48828125,-11.7797851562,0.0,0.0,0.0,0.0,0.0,0.0,0.0,0.0,0.0,0.0382812507451,0.172265633941,9.35976600647,0.0,0.0,0.0,0.0,0.0,0.0,0.0,0.0,0.0
1575033901719777327,428,3176117521000,gps_ref,0.0,0.0,0.0,0.0,0.0,0.0,0.0,0.0,0.0,0.0,0.0,0.0,0.0,-0.503540039062,0.48828125,-12.7258300781,0.0,0.0,0.0,0.0,0.0,0.0,0.0,0.0,0.0,0.0191406253725,0.0,9.666015625,0.0,0.0,0.0,0.0,0.0,0.0,0.0,0.0,0.0
1575033901921902340,429,3176217317000,gps_ref,0.0,0.0,0.0,0.0,0.0,0.0,0.0,0.0,0.0,0.0,0.0,0.0,0.0,-0.213623046875,0.396728515625,-13.0004882812,0.0,0.0,0.0,0.0,0.0,0.0,0.0,0.0,0.0,0.30625000596,-0.0191406253725,9.0152349472,0.0,0.0,0.0,0.0,0.0,0.0,0.0,0.0,0.0
1575033902089527539,430,3176317306000,gps_ref,0.0,0.0,0.0,0.0,0.0,0.0,0.0,0.0,0.0,0.0,0.0,0.0,0.0,-0.411987304688,-0.701904296875,-13.427734375,0.0,0.0,0.0,0.0,0.0,0.0,0.0,0.0,0.0,0.516796886921,-0.095703125,9.3023443222,0.0,0.0,0.0,0.0,0.0,0.0,0.0,0.0,0.0
1575033902263884454,431,3176427188000,gps_ref,0.0,0.0,0.0,0.0,0.0,0.0,0.0,0.0,0.0,0.0,0.0,0.0,0.0,0.381469726562,-0.42724609375,-14.5416259766,0.0,0.0,0.0,0.0,0.0,0.0,0.0,0.0,0.0,0.555078148842,-0.172265633941,9.53203105927,0.0,0.0,0.0,0.0,0.0,0.0,0.0,0.0,0.0
1575033902426355578,432,3176507086000,gps_ref,0.0,0.0,0.0,0.0,0.0,0.0,0.0,0.0,0.0,0.0,0.0,0.0,0.0,-0.167846679688,-0.198364257812,-14.8315429688,0.0,0.0,0.0,0.0,0.0,0.0,0.0,0.0,0.0,0.49765625596,-0.229687511921,9.3980474472,0.0,0.0,0.0,0.0,0.0,0.0,0.0,0.0,0.0
1575033902634006072,433,3176627718000,gps_ref,0.0,0.0,0.0,0.0,0.0,0.0,0.0,0.0,0.0,0.0,0.0,0.0,0.0,-0.30517578125,0.396728515625,-15.4418945312,0.0,0.0,0.0,0.0,0.0,0.0,0.0,0.0,0.0,0.48808594048,-0.16269531846,9.40761709213,0.0,0.0,0.0,0.0,0.0,0.0,0.0,0.0,0.0
1575033902837072589,434,3176727196000,gps_ref,0.0,0.0,0.0,0.0,0.0,0.0,0.0,0.0,0.0,0.0,0.0,0.0,0.0,-1.32751464844,0.0,-15.6402587891,0.0,0.0,0.0,0.0,0.0,0.0,0.0,0.0,0.0,0.516796886921,-0.13398437202,9.37890625,0.0,0.0,0.0,0.0,0.0,0.0,0.0,0.0,0.0
1575033903020690773,435,3176837496000,gps_ref,0.0,0.0,0.0,0.0,0.0,0.0,0.0,0.0,0.0,0.0,0.0,0.0,0.0,-0.823974609375,0.411987304688,-15.7165527344,0.0,0.0,0.0,0.0,0.0,0.0,0.0,0.0,0.0,0.449804708362,-0.363671883941,9.73300790787,0.0,0.0,0.0,0.0,0.0,0.0,0.0,0.0,0.0
1575033903201218518,436,3176926440000,gps_ref,0.0,0.0,0.0,0.0,0.0,0.0,0.0,0.0,0.0,0.0,0.0,0.0,0.0,-0.244140625,0.67138671875,-15.8233642578,0.0,0.0,0.0,0.0,0.0,0.0,0.0,0.0,0.0,0.440234392881,-0.440234392881,9.35976600647,0.0,0.0,0.0,0.0,0.0,0.0,0.0,0.0,0.0
1575033903405147784,437,3177036029000,gps_ref,0.0,0.0,0.0,0.0,0.0,0.0,0.0,0.0,0.0,0.0,0.0,0.0,0.0,-0.137329101562,0.732421875,-16.2963867188,0.0,0.0,0.0,0.0,0.0,0.0,0.0,0.0,0.0,0.49765625596,-0.229687511921,9.43632793427,0.0,0.0,0.0,0.0,0.0,0.0,0.0,0.0,0.0
1575033903579284632,438,3177136029000,gps_ref,0.0,0.0,0.0,0.0,0.0,0.0,0.0,0.0,0.0,0.0,0.0,0.0,0.0,0.595092773438,0.595092773438,-16.7541503906,0.0,0.0,0.0,0.0,0.0,0.0,0.0,0.0,0.0,0.26796874404,-0.459375023842,9.5894536972,0.0,0.0,0.0,0.0,0.0,0.0,0.0,0.0,0.0
1575033903767181539,439,3177246213000,gps_ref,0.0,0.0,0.0,0.0,0.0,0.0,0.0,0.0,0.0,0.0,0.0,0.0,0.0,1.37329101562,0.717163085938,-17.1051025391,0.0,0.0,0.0,0.0,0.0,0.0,0.0,0.0,0.0,0.440234392881,-0.478515625,9.34062480927,0.0,0.0,0.0,0.0,0.0,0.0,0.0,0.0,0.0
1575033903955712028,440,3177346277000,gps_ref,0.0,0.0,0.0,0.0,0.0,0.0,0.0,0.0,0.0,0.0,0.0,0.0,0.0,1.953125,0.350952148438,-17.7459716797,0.0,0.0,0.0,0.0,0.0,0.0,0.0,0.0,0.0,0.26796874404,-0.459375023842,9.37890625,0.0,0.0,0.0,0.0,0.0,0.0,0.0,0.0,0.0
1575033904126820900,441,3177446893000,gps_ref,0.0,0.0,0.0,0.0,0.0,0.0,0.0,0.0,0.0,0.0,0.0,0.0,0.0,0.747680664062,0.06103515625,-18.2647705078,0.0,0.0,0.0,0.0,0.0,0.0,0.0,0.0,0.0,0.24882812798,-0.26796875149,9.2449221611,0.0,0.0,0.0,0.0,0.0,0.0,0.0,0.0,0.0
1575033904304992187,442,3177546185000,gps_ref,0.0,0.0,0.0,0.0,0.0,0.0,0.0,0.0,0.0,0.0,0.0,0.0,0.0,0.396728515625,-0.198364257812,-18.9361572266,0.0,0.0,0.0,0.0,0.0,0.0,0.0,0.0,0.0,0.30625000596,-0.287109375,9.32148456573,0.0,0.0,0.0,0.0,0.0,0.0,0.0,0.0,0.0
1575033904504665216,443,3177646277000,gps_ref,0.0,0.0,0.0,0.0,0.0,0.0,0.0,0.0,0.0,0.0,0.0,0.0,0.0,-1.37329101562,0.0457763671875,-19.6075439453,0.0,0.0,0.0,0.0,0.0,0.0,0.0,0.0,0.0,0.440234392881,-0.3828125,9.35976600647,0.0,0.0,0.0,0.0,0.0,0.0,0.0,0.0,0.0
1575033904692074959,444,3177746288000,gps_ref,0.0,0.0,0.0,0.0,0.0,0.0,0.0,0.0,0.0,0.0,0.0,0.0,0.0,-1.78527832031,-0.06103515625,-19.6075439453,0.0,0.0,0.0,0.0,0.0,0.0,0.0,0.0,0.0,0.26796874404,-0.440234392881,9.16835975647,0.0,0.0,0.0,0.0,0.0,0.0,0.0,0.0,0.0
1575033904882967611,445,3177856098000,gps_ref,0.0,0.0,0.0,0.0,0.0,0.0,0.0,0.0,0.0,0.0,0.0,0.0,0.0,-1.5869140625,0.6103515625,-19.7296142578,0.0,0.0,0.0,0.0,0.0,0.0,0.0,0.0,0.0,0.172265633941,-0.516796886921,9.43632793427,0.0,0.0,0.0,0.0,0.0,0.0,0.0,0.0,0.0
1575033905066365459,446,3177956028000,gps_ref,0.0,0.0,0.0,0.0,0.0,0.0,0.0,0.0,0.0,0.0,0.0,0.0,0.0,-0.930786132812,1.40380859375,-19.8669433594,0.0,0.0,0.0,0.0,0.0,0.0,0.0,0.0,0.0,0.24882812798,-0.49765625596,9.666015625,0.0,0.0,0.0,0.0,0.0,0.0,0.0,0.0,0.0
1575033905258385136,447,3178046964000,gps_ref,0.0,0.0,0.0,0.0,0.0,0.0,0.0,0.0,0.0,0.0,0.0,0.0,0.0,-0.274658203125,1.05285644531,-19.775390625,0.0,0.0,0.0,0.0,0.0,0.0,0.0,0.0,0.0,0.16269531101,-0.631640642881,9.4267578125,0.0,0.0,0.0,0.0,0.0,0.0,0.0,0.0,0.0
1575033905446345318,448,3178165257000,gps_ref,0.0,0.0,0.0,0.0,0.0,0.0,0.0,0.0,0.0,0.0,0.0,0.0,0.0,0.137329101562,0.335693359375,-19.6990966797,0.0,0.0,0.0,0.0,0.0,0.0,0.0,0.0,0.0,0.15312500298,-0.49765625596,9.22578144073,0.0,0.0,0.0,0.0,0.0,0.0,0.0,0.0,0.0
1575033905646776664,449,3178265249000,gps_ref,0.0,0.0,0.0,0.0,0.0,0.0,0.0,0.0,0.0,0.0,0.0,0.0,0.0,0.259399414062,-0.106811523438,-19.6075439453,0.0,0.0,0.0,0.0,0.0,0.0,0.0,0.0,0.0,0.0478515625,-0.50722655654,9.22578144073,0.0,0.0,0.0,0.0,0.0,0.0,0.0,0.0,0.0
1575033905844869303,450,3178365948000,gps_ref,0.0,0.0,0.0,0.0,0.0,0.0,0.0,0.0,0.0,0.0,0.0,0.0,0.0,0.030517578125,-0.686645507812,-19.3328857422,0.0,0.0,0.0,0.0,0.0,0.0,0.0,0.0,0.0,0.0478515643626,-0.430664077401,9.2449221611,0.0,0.0,0.0,0.0,0.0,0.0,0.0,0.0,0.0
1575033906030085601,451,3178465218000,gps_ref,0.0,0.0,0.0,0.0,0.0,0.0,0.0,0.0,0.0,0.0,0.0,0.0,0.0,-0.0762939453125,0.1220703125,-18.8751220703,0.0,0.0,0.0,0.0,0.0,0.0,0.0,0.0,0.0,0.11484375596,-0.344531267881,9.60859394073,0.0,0.0,0.0,0.0,0.0,0.0,0.0,0.0,0.0
1575033906215340490,452,3178575098000,gps_ref,0.0,0.0,0.0,0.0,0.0,0.0,0.0,0.0,0.0,0.0,0.0,0.0,0.0,0.030517578125,0.48828125,-18.2952880859,0.0,0.0,0.0,0.0,0.0,0.0,0.0,0.0,0.0,0.0191406253725,-0.421093761921,9.41718769073,0.0,0.0,0.0,0.0,0.0,0.0,0.0,0.0,0.0
1575033906420349701,453,3178675197000,gps_ref,0.0,0.0,0.0,0.0,0.0,0.0,0.0,0.0,0.0,0.0,0.0,0.0,0.0,-0.625610351562,0.48828125,-18.1427001953,0.0,0.0,0.0,0.0,0.0,0.0,0.0,0.0,0.0,0.0765625014901,-0.30625000596,9.51289081573,0.0,0.0,0.0,0.0,0.0,0.0,0.0,0.0,0.0
1575033906625690808,454,3178794940000,gps_ref,0.0,0.0,0.0,0.0,0.0,0.0,0.0,0.0,0.0,0.0,0.0,0.0,0.0,-0.747680664062,0.0,-17.7764892578,0.0,0.0,0.0,0.0,0.0,0.0,0.0,0.0,0.0,0.0191406253725,-0.49765625596,9.4841799736,0.0,0.0,0.0,0.0,0.0,0.0,0.0,0.0,0.0
1575033906804395084,455,3178896126000,gps_ref,0.0,0.0,0.0,0.0,0.0,0.0,0.0,0.0,0.0,0.0,0.0,0.0,0.0,0.030517578125,-0.167846679688,-17.3492431641,0.0,0.0,0.0,0.0,0.0,0.0,0.0,0.0,0.0,0.0382812470198,-0.3349609375,9.5798830986,0.0,0.0,0.0,0.0,0.0,0.0,0.0,0.0,0.0
1575033906985796374,456,3178995656000,gps_ref,0.0,0.0,0.0,0.0,0.0,0.0,0.0,0.0,0.0,0.0,0.0,0.0,0.0,-0.289916992188,0.289916992188,-17.2424316406,0.0,0.0,0.0,0.0,0.0,0.0,0.0,0.0,0.0,0.0765625014901,-0.344531267881,9.45546913147,0.0,0.0,0.0,0.0,0.0,0.0,0.0,0.0,0.0
1575033907182630051,457,3179105202000,gps_ref,0.0,0.0,0.0,0.0,0.0,0.0,0.0,0.0,0.0,0.0,0.0,0.0,0.0,0.289916992188,0.6103515625,-16.7846679688,0.0,0.0,0.0,0.0,0.0,0.0,0.0,0.0,0.0,0.0382812507451,-0.30625000596,9.3980474472,0.0,0.0,0.0,0.0,0.0,0.0,0.0,0.0,0.0
1575033907357901830,458,3179205151000,gps_ref,0.0,0.0,0.0,0.0,0.0,0.0,0.0,0.0,0.0,0.0,0.0,0.0,0.0,0.3662109375,0.213623046875,-16.2811279297,0.0,0.0,0.0,0.0,0.0,0.0,0.0,0.0,0.0,0.0574218779802,-0.3828125,9.32148456573,0.0,0.0,0.0,0.0,0.0,0.0,0.0,0.0,0.0
1575033907548471119,459,3179304302000,gps_ref,0.0,0.0,0.0,0.0,0.0,0.0,0.0,0.0,0.0,0.0,0.0,0.0,0.0,-0.457763671875,-0.18310546875,-15.7165527344,0.0,0.0,0.0,0.0,0.0,0.0,0.0,0.0,0.0,0.172265633941,-0.11484375596,9.32148456573,0.0,0.0,0.0,0.0,0.0,0.0,0.0,0.0,0.0
1575033907708140694,460,3179414417000,gps_ref,0.0,0.0,0.0,0.0,0.0,0.0,0.0,0.0,0.0,0.0,0.0,0.0,0.0,-0.534057617188,0.0152587890625,-14.8162841797,0.0,0.0,0.0,0.0,0.0,0.0,0.0,0.0,0.0,-0.095703125,-0.440234392881,9.6851568222,0.0,0.0,0.0,0.0,0.0,0.0,0.0,0.0,0.0
1575033907867374586,461,3179504664000,gps_ref,0.0,0.0,0.0,0.0,0.0,0.0,0.0,0.0,0.0,0.0,0.0,0.0,0.0,-0.534057617188,-0.213623046875,-13.5040283203,0.0,0.0,0.0,0.0,0.0,0.0,0.0,0.0,0.0,0.12441406399,-0.3349609375,9.46503925323,0.0,0.0,0.0,0.0,0.0,0.0,0.0,0.0,0.0
1575033908033855344,462,3179614262000,gps_ref,0.0,0.0,0.0,0.0,0.0,0.0,0.0,0.0,0.0,0.0,0.0,0.0,0.0,1.46484375,-0.579833984375,-12.3443603516,0.0,0.0,0.0,0.0,0.0,0.0,0.0,0.0,0.0,0.21054688096,-0.24882812798,9.15878915787,0.0,0.0,0.0,0.0,0.0,0.0,0.0,0.0,0.0
